loggingTime,loggingSample,locationTimestamp_since1970,locationLatitude,locationLongitude,locationAltitude,locationSpeed,locationCourse,locationVerticalAccuracy,locationHorizontalAccuracy,locationFloor,locationHeadingTimestamp_since1970,locationHeadingX,locationHeadingY,locationHeadingZ,locationTrueHeading,locationMagneticHeading,locationHeadingAccuracy,accelerometerTimestamp_sinceReboot,accelerometerAccelerationX,accelerometerAccelerationY,accelerometerAccelerationZ,gyroTimestamp_sinceReboot,gyroRotationX,gyroRotationY,gyroRotationZ,motionTimestamp_sinceReboot,motionYaw,motionRoll,motionPitch,motionRotationRateX,motionRotationRateY,motionRotationRateZ,motionUserAccelerationX,motionUserAccelerationY,motionUserAccelerationZ,motionAttitudeReferenceFrame,motionQuaternionX,motionQuaternionY,motionQuaternionZ,motionQuaternionW,motionGravityX,motionGravityY,motionGravityZ,motionMagneticFieldX,motionMagneticFieldY,motionMagneticFieldZ,motionMagneticFieldCalibrationAccuracy,activityTimestamp_sinceReboot,activity,activityActivityConfidence,activityActivityStartDate,pedometerStartDate,pedometerNumberofSteps,pedometerDistance,pedometerFloorAscended,pedometerFloorDescended,pedometerEndDate,altimeterTimestamp_sinceReboot,altimeterReset,altimeterRelativeAltitude,altimeterPressure,IP_en0,IP_pdp_ip0,deviceOrientation,state
2015-05-14 21:33:19.276,1,1431628393.134392,59.93365094508074,30.35731482440787,21.269,-1,-1,10,65,-9999,1431628399.222733,-12.26124572753906,-4.584152221679688,-43.56588745117188,55.95196151733398,45.55683517456055,20,309146.416699375,-0.0468292236328125,-0.32470703125,-0.9501495361328125,309146.409747375,-0.005346029572225063,-0.0223369973269306,0.01048832732105906,309146.389770375,-0.03728627344859464,-0.03427161519560307,0.3237336884269695,-0.1013026833534241,0.06289300322532654,0.002985687926411629,-0.007584587670862675,-0.01837830804288387,-0.04047847539186478,XArbitraryZVertical,-0.1607940090686372,0.01991197441246862,0.02115667691376995,-0.9865602844958833,-0.0324849933385849,-0.3181084990501404,-0.9474976062774658,0,0,0,-1,309140.3202222917,unknown,2,2015-05-14 21:33:13.146,null,0,0,0,0,null,0,0.3645325,99.755,192.168.152.8,100.96.38.157,5,0
2015-05-14 21:33:19.287,2,1431628393.134392,59.93365094508074,30.35731482440787,21.269,-1,-1,10,65,-9999,1431628399.283078,-12.12548065185547,-4.448638916015625,-42.97454833984375,56.03332901000977,45.63820266723633,20,309146.426586375,-0.0477294921875,-0.316802978515625,-0.922393798828125,309146.409747375,-0.005346029572225063,-0.0223369973269306,0.01048832732105906,309146.399759375,-0.03708794119182536,-0.03401690234170818,0.3231650888935388,-0.05440379306674004,0.03867718204855919,0.01831837743520737,-0.01576961018145084,-0.02308307215571404,-0.04134246706962585,XArbitraryZVertical,-0.1605181479805717,0.01976596001749991,0.02103444226047759,-0.9866107556844614,-0.03224979713559151,-0.3175694048404694,-0.9476864337921143,0,0,0,-1,309140.3202222917,unknown,2,2015-05-14 21:33:13.146,null,0,0,0,0,null,0,0.3645325,99.755,192.168.152.8,100.96.38.157,5,0
2015-05-14 21:33:19.305,3,1431628393.134392,59.93365094508074,30.35731482440787,21.269,-1,-1,10,65,-9999,1431628399.283078,-12.12548065185547,-4.448638916015625,-42.97454833984375,56.03332901000977,45.63820266723633,20,309146.436484375,-0.040924072265625,-0.3113555908203125,-0.9125213623046875,309146.429725375,0.04887433232513418,0.07566120551747818,-0.009704026380030728,309146.409747375,-0.0368115212162549,-0.03433632924069286,0.3232006282868496,0.02262595295906067,-0.03744897991418839,0.02836351841688156,-0.01560461241751909,-0.016915338113904,-0.03420772776007652,XArbitraryZVertical,-0.1605350720986515,0.01990162350087197,0.02092396809857197,-0.9866076239150597,-0.03255212679505348,-0.3176030814647675,-0.9476648569107056,0,0,0,-1,309140.3202222917,unknown,2,2015-05-14 21:33:13.146,null,0,0,0,0,null,0,0.3645325,99.755,192.168.152.8,100.96.38.157,5,0
2015-05-14 21:33:19.306,4,1431628393.134392,59.93365094508074,30.35731482440787,21.269,-1,-1,10,65,-9999,1431628399.304288,-12.29520416259766,-4.143730163574219,-43.07308959960938,56.05344390869141,45.65831756591797,20,309146.446361375,-0.034637451171875,-0.3059844970703125,-0.91339111328125,309146.429725375,0.04887433232513418,0.07566120551747818,-0.009704026380030728,309146.419737375,-0.03654113586419109,-0.03458226843499469,0.3238013955685783,0.0705564022064209,-3.766288136830553e-05,0.0216379351913929,-0.01405063457787037,-0.006534332875162363,-0.002683601109310985,XArbitraryZVertical,-0.1608315875493585,0.0200058222341057,0.02081456828609898,-0.9865595376205903,-0.03277859091758728,-0.3181726932525635,-0.9474659562110901,0,0,0,-1,309140.3202222917,unknown,2,2015-05-14 21:33:13.146,null,0,0,0,0,null,0,0.3645325,99.755,192.168.152.8,100.96.38.157,5,0
2015-05-14 21:33:19.307,5,1431628393.134392,59.93365094508074,30.35731482440787,21.269,-1,-1,10,65,-9999,1431628399.304288,-12.29520416259766,-4.143730163574219,-43.07308959960938,56.05344390869141,45.65831756591797,20,309146.456258375,-0.01739501953125,-0.303558349609375,-0.913665771484375,309146.449702375,-0.0172551533348414,0.1167833422255007,-0.02942686478093955,309146.439713375,-0.03633442932759186,-0.03345839770153893,0.3251879626087048,0.0448315441608429,0.09545716643333435,-0.00586749380454421,-0.009225120767951012,0.00813131220638752,0.03453898057341576,XArbitraryZVertical,-0.1615292719570858,0.01944536670684146,0.02063163181339972,-0.9864605961635599,-0.03169894963502884,-0.3194869160652161,-0.9470603466033936,0,0,0,-1,309140.3202222917,unknown,2,2015-05-14 21:33:13.146,null,0,0,0,0,null,0,0.3645325,99.755,192.168.152.8,100.96.38.157,5,0
2015-05-14 21:33:19.308,6,1431628393.134392,59.93365094508074,30.35731482440787,21.269,-1,-1,10,65,-9999,1431628399.304288,-12.29520416259766,-4.143730163574219,-43.07308959960938,56.05344390869141,45.65831756591797,20,309146.466120375,-0.0083770751953125,-0.2975311279296875,-0.9112548828125,309146.459691375,-0.04495096340722945,0.1060284324793247,-0.02979704417246056,309146.439713375,-0.03633442932759186,-0.03345839770153893,0.3251879626087048,0.0448315441608429,0.09545716643333435,-0.00586749380454421,-0.009225120767951012,0.00813131220638752,0.03453898057341576,XArbitraryZVertical,-0.1615292719570858,0.01944536670684146,0.02063163181339972,-0.9864605961635599,-0.03169894963502884,-0.3194869160652161,-0.9470603466033936,0,0,0,-1,309140.3202222917,unknown,2,2015-05-14 21:33:13.146,null,0,0,0,0,null,0,0.2866364,99.75592,192.168.152.8,100.96.38.157,5,0
2015-05-14 21:33:19.310,7,1431628393.134392,59.93365094508074,30.35731482440787,21.269,-1,-1,10,65,-9999,1431628399.304288,-12.29520416259766,-4.143730163574219,-43.07308959960938,56.05344390869141,45.65831756591797,20,309146.476019375,-0.012115478515625,-0.29705810546875,-0.895721435546875,309146.469679375,-0.06095016997198948,0.07726655902257795,-0.01839658417804936,309146.449702375,-0.03643775891553996,-0.03242545245533751,0.3253728797484771,0.01071692910045385,0.1016706302762032,-0.01155151426792145,-0.003918693866580725,0.01367762591689825,0.03364240378141403,XArbitraryZVertical,-0.1616301432564693,0.01894564942202739,0.02060037559095508,-0.9864544508918706,-0.03071875683963299,-0.3196621239185333,-0.9470335245132446,0,0,0,-1,309140.3202222917,unknown,2,2015-05-14 21:33:13.146,null,0,0,0,0,null,0,0.2866364,99.75592,192.168.152.8,100.96.38.157,5,0
2015-05-14 21:33:19.312,8,1431628393.134392,59.93365094508074,30.35731482440787,21.269,-1,-1,10,65,-9999,1431628399.304288,-12.29520416259766,-4.143730163574219,-43.07308959960938,56.05344390869141,45.65831756591797,20,309146.485905375,-0.0162811279296875,-0.3022613525390625,-0.90997314453125,309146.479669375,-0.06639473650454747,0.09211261683533367,-0.01303883669702795,309146.469679375,-0.03661979251986942,-0.03074245768263612,0.3249750543532398,-0.03297819942235947,0.0621539019048214,-0.0005213047843426466,0.02075169235467911,0.02175401896238327,0.03595602884888649,XArbitraryZVertical,-0.161449529325312,0.01812715793830182,0.02055171509465147,-0.9865004220132818,-0.02912876754999161,-0.3192851543426514,-0.9472109079360962,0,0,0,-1,309140.3202222917,unknown,2,2015-05-14 21:33:13.146,null,0,0,0,0,null,0,0.2866364,99.75592,192.168.152.8,100.96.38.157,5,0
2015-05-14 21:33:19.313,9,1431628393.134392,59.93365094508074,30.35731482440787,21.269,-1,-1,10,65,-9999,1431628399.304288,-12.29520416259766,-4.143730163574219,-43.07308959960938,56.05344390869141,45.65831756591797,20,309146.495780375,-0.016143798828125,-0.31024169921875,-0.9228515625,309146.489659375,-0.07476558444288453,0.06126548824505486,-0.01757313476899686,309146.469679375,-0.03661979251986942,-0.03074245768263612,0.3249750543532398,-0.03297819942235947,0.0621539019048214,-0.0005213047843426466,0.02075169235467911,0.02175401896238327,0.03595602884888649,XArbitraryZVertical,-0.161449529325312,0.01812715793830182,0.02055171509465147,-0.9865004220132818,-0.02912876754999161,-0.3192851543426514,-0.9472109079360962,0,0,0,-1,309140.3202222917,unknown,2,2015-05-14 21:33:13.146,null,0,0,0,0,null,0,0.2866364,99.75592,192.168.152.8,100.96.38.157,5,0
2015-05-14 21:33:19.317,10,1431628393.134392,59.93365094508074,30.35731482440787,21.269,-1,-1,10,65,-9999,1431628399.304288,-12.29520416259766,-4.143730163574219,-43.07308959960938,56.05344390869141,45.65831756591797,20,309146.505678375,-0.0207977294921875,-0.311126708984375,-0.93206787109375,309146.499647375,-0.08745022071493194,0.009147958344422183,-0.008399876394218925,309146.479669375,-0.0366731209964991,-0.02971244320312384,0.3245177482592581,-0.03842325508594513,0.07700136303901672,0.004835920408368111,0.01604196801781654,0.02179363742470741,0.05166482552886009,XArbitraryZVertical,-0.1612340296616671,0.0176198180645677,0.02049219534858526,-0.9865460960442889,-0.02815744653344154,-0.3188517391681671,-0.9473862648010254,0,0,0,-1,309140.3202222917,unknown,2,2015-05-14 21:33:13.146,null,0,0,0,0,null,0,0.2866364,99.75592,192.168.152.8,100.96.38.157,5,0
2015-05-14 21:33:19.339,11,1431628393.134392,59.93365094508074,30.35731482440787,21.269,-1,-1,10,65,-9999,1431628399.323852,-12.26125335693359,-4.1776123046875,-42.97454833984375,56.07870864868164,45.6835823059082,20,309146.515565375,-0.0304718017578125,-0.3106842041015625,-0.94482421875,309146.499647375,-0.08745022071493194,0.009147958344422183,-0.008399876394218925,309146.489659375,-0.03668272168310072,-0.02914746838897372,0.3240766805037135,-0.04679415747523308,0.04615426808595657,0.0003015862021129578,0.0113451611250639,0.01617231220006943,0.03756935521960258,XArbitraryZVertical,-0.1610221379031236,0.01733843209688418,0.02044886543198007,-0.9865865870667783,-0.0276262890547514,-0.3184336721897125,-0.9475424885749817,0,0,0,-1,309140.3202222917,unknown,2,2015-05-14 21:33:13.146,null,0,0,0,0,null,0,0.2866364,99.75592,192.168.152.8,100.96.38.157,5,0
2015-05-14 21:33:19.341,12,1431628393.134392,59.93365094508074,30.35731482440787,21.269,-1,-1,10,65,-9999,1431628399.323852,-12.26125335693359,-4.1776123046875,-42.97454833984375,56.07870864868164,45.6835823059082,20,309146.525441375,-0.032623291015625,-0.31378173828125,-0.95098876953125,309146.509636375,-0.09697475003749133,-0.02276896205574145,-0.00334785980633861,309146.489659375,-0.03668272168310072,-0.02914746838897372,0.3240766805037135,-0.04679415747523308,0.04615426808595657,0.0003015862021129578,0.0113451611250639,0.01617231220006943,0.03756935521960258,XArbitraryZVertical,-0.1610221379031236,0.01733843209688418,0.02044886543198007,-0.9865865870667783,-0.0276262890547514,-0.3184336721897125,-0.9475424885749817,0,0,0,-1,309140.3202222917,unknown,2,2015-05-14 21:33:13.146,null,0,0,0,0,null,0,0.2866364,99.75592,192.168.152.8,100.96.38.157,5,0
2015-05-14 21:33:19.347,13,1431628393.134392,59.93365094508074,30.35731482440787,21.269,-1,-1,10,65,-9999,1431628399.342146,-12.02365875244141,-4.143730163574219,-42.94171142578125,56.09899520874023,45.7038688659668,20,309146.535340375,-0.03173828125,-0.312774658203125,-0.948394775390625,309146.529613375,-0.1054547875805216,-0.02387044548259823,-0.008785235803953391,309146.509636375,-0.03649972169301724,-0.02943635594165397,0.3228405621286979,-0.06900343298912048,-0.03788012266159058,0.01452679000794888,0.007113855332136154,0.00613494124263525,0.01585933566093445,XArbitraryZVertical,-0.1604109285613428,0.01745653890580549,0.02037469114954813,-0.986685600993588,-0.02791158482432365,-0.3172616362571716,-0.9479271769523621,0,0,0,-1,309140.3202222917,unknown,2,2015-05-14 21:33:13.146,null,0,0,0,0,null,0,0.2866364,99.75592,192.168.152.8,100.96.38.157,5,0
2015-05-14 21:33:19.356,14,1431628393.134392,59.93365094508074,30.35731482440787,21.269,-1,-1,10,65,-9999,1431628399.342146,-12.02365875244141,-4.143730163574219,-42.94171142578125,56.09899520874023,45.7038688659668,20,309146.545217375,-0.0319366455078125,-0.3131561279296875,-0.9484100341796875,309146.539602375,-0.09804107973795906,-0.01533687840165733,-0.006520217296840999,309146.529613375,-0.03631420559733697,-0.03026000779123209,0.3211665997087444,-0.07748405635356903,-0.03898176923394203,0.00908943172544241,-0.00391492573544383,0.001891985768452287,-0.002555361483246088,XArbitraryZVertical,-0.1595782175730303,0.01783503299362019,0.02033916693845752,-0.9868145835781816,-0.02870836481451988,-0.3156737387180328,-0.9484333992004395,0,0,0,-1,309140.3202222917,unknown,2,2015-05-14 21:33:13.146,null,0,0,0,0,null,0,0.2866364,99.75592,192.168.152.8,100.96.38.157,5,0
2015-05-14 21:33:19.368,15,1431628393.134392,59.93365094508074,30.35731482440787,21.269,-1,-1,10,65,-9999,1431628399.36212,-11.95577239990234,-3.940467834472656,-43.20449829101562,56.10982894897461,45.71470260620117,20,309146.555102375,-0.03216552734375,-0.3164825439453125,-0.9525299072265625,309146.549590375,-0.08210578903936093,0.009173524690886944,-0.009407083918486893,309146.529613375,-0.03631420559733697,-0.03026000779123209,0.3211665997087444,-0.07748405635356903,-0.03898176923394203,0.00908943172544241,-0.00391492573544383,0.001891985768452287,-0.002555361483246088,XArbitraryZVertical,-0.1595782175730303,0.01783503299362019,0.02033916693845752,-0.9868145835781816,-0.02870836481451988,-0.3156737387180328,-0.9484333992004395,0,0,0,-1,309140.3202222917,unknown,2,2015-05-14 21:33:13.146,null,0,0,0,0,null,0,0.2866364,99.75592,192.168.152.8,100.96.38.157,5,0
2015-05-14 21:33:19.376,16,1431628393.134392,59.93365094508074,30.35731482440787,21.269,-1,-1,10,65,-9999,1431628399.36212,-11.95577239990234,-3.940467834472656,-43.20449829101562,56.10982894897461,45.71470260620117,20,309146.565002375,-0.03070068359375,-0.3134307861328125,-0.947418212890625,309146.559578375,-0.07143290465475938,0.008161789792765842,-0.009293100623831502,309146.539602375,-0.03621882506654097,-0.03063148788539118,0.3204318212731199,-0.07007040828466415,-0.03044817037880421,0.0113544138148427,-0.002670497866347432,0.002201773226261139,0.0002594881225377321,XArbitraryZVertical,-0.1592127086244519,0.01800504532948904,0.0203172542750654,-0.9868709849488281,-0.02906778268516064,-0.3149764239788055,-0.9486542344093323,0,0,0,-1,309140.3202222917,unknown,2,2015-05-14 21:33:13.146,null,0,0,0,0,null,0,0.2866364,99.75592,192.168.152.8,100.96.38.157,5,0
2015-05-14 21:33:19.386,17,1431628393.134392,59.93365094508074,30.35731482440787,21.269,-1,-1,10,65,-9999,1431628399.382698,-11.78606414794922,-3.838836669921875,-43.171630859375,56.11411285400391,45.71898651123047,20,309146.574890375,-0.0306243896484375,-0.3179931640625,-0.9459228515625,309146.559578375,-0.07143290465475938,0.008161789792765842,-0.009293100623831502,309146.549590375,-0.0361436291004683,-0.03077299477720464,0.3198515419657977,-0.05413516610860825,-0.005937737878412008,0.008467512205243111,-0.002729002619162202,0.00126950757112354,0.0004226345918141305,XArbitraryZVertical,-0.1589255874834672,0.01806441974878671,0.02028784406173804,-0.9869167836071592,-0.02920764312148094,-0.3144256472587585,-0.9488326907157898,0,0,0,-1,309140.3202222917,unknown,2,2015-05-14 21:33:13.146,null,0,0,0,0,null,0,0.2866364,99.75592,192.168.152.8,100.96.38.157,5,0
2015-05-14 21:33:19.398,18,1431628393.134392,59.93365094508074,30.35731482440787,21.269,-1,-1,10,65,-9999,1431628399.382698,-11.78606414794922,-3.838836669921875,-43.171630859375,56.11411285400391,45.71898651123047,20,309146.584778375,-0.0321502685546875,-0.3172149658203125,-0.943084716796875,309146.569568375,-0.07563377495825037,-0.01098074580661471,-0.008379370053825315,309146.549590375,-0.0361436291004683,-0.03077299477720464,0.3198515419657977,-0.05413516610860825,-0.005937737878412008,0.008467512205243111,-0.002729002619162202,0.00126950757112354,0.0004226345918141305,XArbitraryZVertical,-0.1589255874834672,0.01806441974878671,0.02028784406173804,-0.9869167836071592,-0.02920764312148094,-0.3144256472587585,-0.9488326907157898,0,0,0,-1,309140.3202222917,unknown,2,2015-05-14 21:33:13.146,null,0,0,0,0,null,0,0.2866364,99.75592,192.168.152.8,100.96.38.157,5,0
2015-05-14 21:33:19.407,19,1431628393.134392,59.93365094508074,30.35731482440787,21.269,-1,-1,10,65,-9999,1431628399.401894,-11.71817016601562,-4.042098999023438,-43.171630859375,56.12329864501953,45.72817230224609,20,309146.594665375,-0.037994384765625,-0.311279296875,-0.9425506591796875,309146.589552375,-0.08957435800037915,-0.01848553375845801,0.002095108829565337,309146.569568375,-0.03597564854606293,-0.03112868092960029,0.3189560382176225,-0.04766316339373589,-0.02609221450984478,0.009495246224105358,-0.001146804192103446,0.0001446377427782863,0.001685059512965381,XArbitraryZVertical,-0.1584815593410326,0.01821974562155882,0.02022761801898355,-0.9869865650998485,-0.02955387905240059,-0.31357541680336,-0.9491032958030701,0,0,0,-1,309140.3202222917,unknown,2,2015-05-14 21:33:13.146,null,0,0,0,0,null,0,0.2866364,99.75592,192.168.152.8,100.96.38.157,5,0
2015-05-14 21:33:19.421,20,1431628393.134392,59.93365094508074,30.35731482440787,21.269,-1,-1,10,65,-9999,1431628399.401894,-11.71817016601562,-4.042098999023438,-43.171630859375,56.12329864501953,45.72817230224609,20,309146.604543375,-0.0331878662109375,-0.30755615234375,-0.9380035400390625,309146.599534375,-0.08104531829329138,0.0006788397618611978,-0.005173456733587928,309146.589552375,-0.03563855058906432,-0.03200043259211627,0.3177954513040721,-0.06160386279225349,-0.0335969403386116,0.01996965333819389,-0.001757394638843834,-0.004741803742945194,0.006355537101626396,XArbitraryZVertical,-0.1579030503824981,0.01861450046436711,0.02012281311390017,-0.9870740597567877,-0.03039287403225899,-0.3124731481075287,-0.9494402408599854,0,0,0,-1,309140.3202222917,unknown,2,2015-05-14 21:33:13.146,null,0,0,0,0,null,0,0.2866364,99.75592,192.168.152.8,100.96.38.157,5,0
2015-05-14 21:33:19.426,21,1431628393.134392,59.93365094508074,30.35731482440787,21.269,-1,-1,10,65,-9999,1431628399.421798,-11.88787841796875,-4.21148681640625,-43.20443725585938,56.14274597167969,45.74761962890625,20,309146.614431375,-0.029541015625,-0.3055267333984375,-0.9358367919921875,309146.599534375,-0.08104531829329138,0.0006788397618611978,-0.005173456733587928,309146.589552375,-0.03563855058906432,-0.03200043259211627,0.3177954513040721,-0.06160386279225349,-0.0335969403386116,0.01996965333819389,-0.001757394638843834,-0.004741803742945194,0.006355537101626396,XArbitraryZVertical,-0.1579030503824981,0.01861450046436711,0.02012281311390017,-0.9870740597567877,-0.03039287403225899,-0.3124731481075287,-0.9494402408599854,0,0,0,-1,309140.3202222917,unknown,2,2015-05-14 21:33:13.146,null,0,0,0,0,null,0,0.2866364,99.75592,192.168.152.8,100.96.38.157,5,0
2015-05-14 21:33:19.435,22,1431628393.134392,59.93365094508074,30.35731482440787,21.269,-1,-1,10,65,-9999,1431628399.421798,-11.88787841796875,-4.21148681640625,-43.20443725585938,56.14274597167969,45.74761962890625,20,309146.624306375,-0.0308074951171875,-0.3057098388671875,-0.937103271484375,309146.619498375,-0.04160976150361603,0.03061356936267886,-0.01310301887929886,309146.599534375,-0.03545053376991507,-0.03240103104946714,0.317254384940885,-0.05307473242282867,-0.0144333029165864,0.01270131953060627,-0.007215696386992931,0.0006798462709411979,0.007046184502542019,XArbitraryZVertical,-0.157633718299004,0.01879332500908181,0.02005807875740374,-0.9871150364911346,-0.03077868744730949,-0.3119591474533081,-0.9495968222618103,0,0,0,-1,309140.3202222917,unknown,2,2015-05-14 21:33:13.146,null,0,0,0,0,null,0,0.2866364,99.75592,192.168.152.8,100.96.38.157,5,0
2015-05-14 21:33:19.445,23,1431628393.134392,59.93365094508074,30.35731482440787,21.269,-1,-1,10,65,-9999,1431628399.442613,-12.02365112304688,-4.211479187011719,-43.07302856445312,56.16725540161133,45.77212905883789,20,309146.634206375,-0.0321502685546875,-0.308685302734375,-0.94219970703125,309146.619498375,-0.04160976150361603,0.03061356936267886,-0.01310301887929886,309146.609510375,-0.03535923237973718,-0.03251482264267848,0.3168737149860291,-0.03280338272452354,0.0005368817946873605,0.006608335766941309,-0.002297263592481613,0.004041295498609543,0.01170841697603464,XArbitraryZVertical,-0.157445534527058,0.0188394577830107,0.02001946116080769,-0.9871449739844502,-0.03089060261845589,-0.3115974366664886,-0.9497119784355164,0,0,0,-1,309140.3202222917,unknown,2,2015-05-14 21:33:13.146,null,0,0,0,0,null,0,0.2866364,99.75592,192.168.152.8,100.96.38.157,5,0
2015-05-14 21:33:19.457,24,1431628393.134392,59.93365094508074,30.35731482440787,21.269,-1,-1,10,65,-9999,1431628399.442613,-12.02365112304688,-4.211479187011719,-43.07302856445312,56.16725540161133,45.77212905883789,20,309146.644097375,-0.0274200439453125,-0.3017578125,-0.940826416015625,309146.629500375,-0.02881380509800331,0.04236103924712738,-0.01716327427723367,309146.609510375,-0.03535923237973718,-0.03251482264267848,0.3168737149860291,-0.03280338272452354,0.0005368817946873605,0.006608335766941309,-0.002297263592481613,0.004041295498609543,0.01170841697603464,XArbitraryZVertical,-0.157445534527058,0.0188394577830107,0.02001946116080769,-0.9871449739844502,-0.03089060261845589,-0.3115974366664886,-0.9497119784355164,0,0,0,-1,309140.3202222917,unknown,2,2015-05-14 21:33:13.146,null,0,0,0,0,null,0,0.2866364,99.75592,192.168.152.8,100.96.38.157,5,0
2015-05-14 21:33:19.465,25,1431628393.134392,59.93365094508074,30.35731482440787,21.269,-1,-1,10,65,-9999,1431628399.461336,-12.39702606201172,-4.109848022460938,-43.171630859375,56.19866561889648,45.80353927612305,20,309146.653983375,-0.027008056640625,-0.3101806640625,-0.9411163330078125,309146.649467375,-0.04900003352858592,0.04651690212819604,-0.02803882522079025,309146.629500375,-0.03529538291200094,-0.0321573563419246,0.3166203942978534,-0.0008437093929387629,0.02724874578416348,0.0007115012849681079,-0.0002538475964684039,0.00564689002931118,0.0126985302194953,XArbitraryZVertical,-0.157324660655557,0.01865610965490112,0.01995814746743418,-0.9871689688558007,-0.03055364824831486,-0.3113567233085632,-0.9498018026351929,0,0,0,-1,309140.3202222917,unknown,2,2015-05-14 21:33:13.146,null,0,0,0,0,null,0,0.2866364,99.75592,192.168.152.8,100.96.38.157,5,0
2015-05-14 21:33:19.476,26,1431628393.134392,59.93365094508074,30.35731482440787,21.269,-1,-1,10,65,-9999,1431628399.461336,-12.39702606201172,-4.109848022460938,-43.171630859375,56.19866561889648,45.80353927612305,20,309146.663869375,-0.0223236083984375,-0.3134765625,-0.9507293701171875,309146.659468375,-0.05753439955785385,0.0337270709930905,-0.02286936322883744,309146.649467375,-0.03546048613394556,-0.03143769497287176,0.3163160096524328,-0.0210307203233242,0.03140474110841751,-0.01016412768512964,0.002453037537634373,0.009309647604823112,0.009091809391975403,XArbitraryZVertical,-0.1571800652261609,0.01831159536476003,0.01998109199886978,-0.9871979885176165,-0.02987308241426945,-0.3110674619674683,-0.9499182105064392,0,0,0,-1,309140.3202222917,unknown,2,2015-05-14 21:33:13.146,null,0,0,0,0,null,0,0.2866364,99.75592,192.168.152.8,100.96.38.157,5,0
2015-05-14 21:33:19.487,27,1431628393.134392,59.93365094508074,30.35731482440787,21.269,-1,-1,10,65,-9999,1431628399.481622,-12.39702606201172,-4.313117980957031,-42.97451782226562,56.23873901367188,45.84361267089844,20,309146.673755375,-0.0249786376953125,-0.3067474365234375,-0.952392578125,309146.659468375,-0.05753439955785385,0.0337270709930905,-0.02286936322883744,309146.649467375,-0.03546048613394556,-0.03143769497287176,0.3163160096524328,-0.0210307203233242,0.03140474110841751,-0.01016412768512964,0.002453037537634373,0.009309647604823112,0.009091809391975403,XArbitraryZVertical,-0.1571800652261609,0.01831159536476003,0.01998109199886978,-0.9871979885176165,-0.02987308241426945,-0.3110674619674683,-0.9499182105064392,0,0,0,-1,309140.3202222917,unknown,2,2015-05-14 21:33:13.146,null,0,0,0,0,null,0,0.2866364,99.75592,192.168.152.8,100.96.38.157,5,0
2015-05-14 21:33:19.500,28,1431628393.134392,59.93365094508074,30.35731482440787,21.269,-1,-1,10,65,-9999,1431628399.481622,-12.39702606201172,-4.313117980957031,-42.97451782226562,56.23873901367188,45.84361267089844,20,309146.683642375,-0.028839111328125,-0.310150146484375,-0.9485015869140625,309146.679435375,-0.03086603703401837,0.009417203930629194,-0.01203322706941403,309146.659468375,-0.03555534804776699,-0.03112617642708645,0.3160713293108156,-0.02956494875252247,0.01861518993973732,-0.004994793329387903,0.002571474062278867,0.0006542452028952539,0.008887198753654957,XArbitraryZVertical,-0.1570615281004732,0.01816343750709418,0.02000189584723071,-0.9872191702409273,-0.0295795314013958,-0.3108349144458771,-0.9500035047531128,0,0,0,-1,309140.3202222917,unknown,2,2015-05-14 21:33:13.146,null,0,0,0,0,null,0,0.2866364,99.75592,192.168.152.8,100.96.38.157,5,0
2015-05-14 21:33:19.505,29,1431628393.134392,59.93365094508074,30.35731482440787,21.269,-1,-1,10,65,-9999,1431628399.502535,-12.63462066650391,-4.143722534179688,-43.27017211914062,56.27760314941406,45.88247680664062,20,309146.693532375,-0.03466796875,-0.311614990234375,-0.944732666015625,309146.679435375,-0.03086603703401837,0.009417203930629194,-0.01203322706941403,309146.669447375,-0.03561172894455334,-0.03097438311361215,0.3158754398902917,-0.02205944992601871,-0.005783969536423683,0.001356828608550131,0.007113602943718433,-0.002827845048159361,-0.0006605173693969846,XArbitraryZVertical,-0.1569658335105293,0.01809145512288904,0.02001658216186455,-0.9872354140732782,-0.02943721227347851,-0.3106487095355988,-0.9500688314437866,0,0,0,-1,309140.3202222917,unknown,2,2015-05-14 21:33:13.146,null,0,0,0,0,null,0,0.2866364,99.75592,192.168.152.8,100.96.38.157,5,0
2015-05-14 21:33:19.516,30,1431628393.134392,59.93365094508074,30.35731482440787,21.269,-1,-1,10,65,-9999,1431628399.502535,-12.63462066650391,-4.143722534179688,-43.27017211914062,56.27760314941406,45.88247680664062,20,309146.703415375,-0.0330963134765625,-0.3079376220703125,-0.9344024658203125,309146.689434375,-0.01484445991610167,0.007368700420140244,-0.01293231025342478,309146.669447375,-0.03561172894455334,-0.03097438311361215,0.3158754398902917,-0.02205944992601871,-0.005783969536423683,0.001356828608550131,0.007113602943718433,-0.002827845048159361,-0.0006605173693969846,XArbitraryZVertical,-0.1569658335105293,0.01809145512288904,0.02001658216186455,-0.9872354140732782,-0.02943721227347851,-0.3106487095355988,-0.9500688314437866,0,0,0,-1,309140.3202222917,unknown,2,2015-05-14 21:33:13.146,null,0,0,0,0,null,0,0.2866364,99.75592,192.168.152.8,100.96.38.157,5,0
2015-05-14 21:33:19.525,31,1431628393.134392,59.93365094508074,30.35731482440787,21.269,-1,-1,10,65,-9999,1431628399.521013,-12.36307525634766,-4.143722534179688,-43.53298950195312,56.30698394775391,45.91185760498047,20,309146.713302375,-0.0286712646484375,-0.3060150146484375,-0.9284210205078125,309146.709404375,-0.007326356158807984,0.02015480312971967,-0.0234493997142567,309146.689434375,-0.03553697543303901,-0.03103924872206506,0.3157975596360875,0.0131246279925108,-0.007741914596408606,0.004941747058182955,0.0006604774971492589,0.0004245429299771786,0.001589533174410462,XArbitraryZVertical,-0.1569274149458373,0.01811701890558872,0.01998428543876654,-0.9872417071821328,-0.02949958853423595,-0.3105746805667877,-0.9500911235809326,0,0,0,-1,309140.3202222917,unknown,2,2015-05-14 21:33:13.146,null,0,0,0,0,null,0,0.2866364,99.75592,192.168.152.8,100.96.38.157,5,0
2015-05-14 21:33:19.535,32,1431628393.134392,59.93365094508074,30.35731482440787,21.269,-1,-1,10,65,-9999,1431628399.521013,-12.36307525634766,-4.143722534179688,-43.53298950195312,56.30698394775391,45.91185760498047,20,309146.723195375,-0.028167724609375,-0.3102569580078125,-0.9304351806640625,309146.719400375,-0.01593848649190623,0.05198570342667375,-0.02870514812552808,309146.709404375,-0.03547092065664832,-0.03133922248126288,0.3163210898879695,0.02064310386776924,0.005043369717895985,-0.005575120914727449,-0.003316822461783886,0.003134666010737419,0.01551711652427912,XArbitraryZVertical,-0.1571834613676805,0.01826384768650904,0.01997853569656066,-0.9871983840401982,-0.02977949194610119,-0.3110722899436951,-0.949919581413269,0,0,0,-1,309140.3202222917,unknown,2,2015-05-14 21:33:13.146,null,0,0,0,0,null,0,0.2866364,99.75592,192.168.152.8,100.96.38.157,5,0
2015-05-14 21:33:19.545,33,1431628393.134392,59.93365094508074,30.35731482440787,21.269,-1,-1,10,65,-9999,1431628399.54128,-12.53278350830078,-4.177597045898438,-44.09152221679688,56.33539199829102,45.94026565551758,20,309146.733074375,-0.028350830078125,-0.30682373046875,-0.93670654296875,309146.719400375,-0.01593848649190623,0.05198570342667375,-0.02870514812552808,309146.709404375,-0.03547092065664832,-0.03133922248126288,0.3163210898879695,0.02064310386776924,0.005043369717895985,-0.005575120914727449,-0.003316822461783886,0.003134666010737419,0.01551711652427912,XArbitraryZVertical,-0.1571834613676805,0.01826384768650904,0.01997853569656066,-0.9871983840401982,-0.02977949194610119,-0.3110722899436951,-0.949919581413269,0,0,0,-1,309140.3202222917,unknown,2,2015-05-14 21:33:13.146,null,0,0,0,0,null,0,0.2866364,99.75592,192.168.152.8,100.96.38.157,5,0
2015-05-14 21:33:19.554,34,1431628393.134392,59.93365094508074,30.35731482440787,21.269,-1,-1,10,65,-9999,1431628399.54128,-12.53278350830078,-4.177597045898438,-44.09152221679688,56.33539199829102,45.94026565551758,20,309146.742961375,-0.030517578125,-0.3029632568359375,-0.931640625,309146.729384375,-0.02450214729316502,0.05406936066355175,-0.02665504671838508,309146.709404375,-0.03547092065664832,-0.03133922248126288,0.3163210898879695,0.02064310386776924,0.005043369717895985,-0.005575120914727449,-0.003316822461783886,0.003134666010737419,0.01551711652427912,XArbitraryZVertical,-0.1571834613676805,0.01826384768650904,0.01997853569656066,-0.9871983840401982,-0.02977949194610119,-0.3110722899436951,-0.949919581413269,0,0,0,-1,309140.3202222917,unknown,2,2015-05-14 21:33:13.146,null,0,0,0,0,null,0,0.2866364,99.75592,192.168.152.8,100.96.38.157,5,0
2015-05-14 21:33:19.564,35,1431628393.134392,59.93365094508074,30.35731482440787,21.269,-1,-1,10,65,-9999,1431628399.562587,-12.05759429931641,-4.313117980957031,-43.82867431640625,56.35612869262695,45.96100234985352,20,309146.752858375,-0.0305023193359375,-0.31005859375,-0.9362945556640625,309146.739372375,-0.03189082142148086,0.03172464016945992,-0.02579484568628948,309146.729384375,-0.03567181499269437,-0.0305568077880509,0.3166593950555243,0.003467917675152421,0.03895809501409531,-0.008780892938375473,0.0008653094992041588,0.001136832754127681,0.01940216869115829,XArbitraryZVertical,-0.157356468820507,0.01789600797309299,0.02001828096809298,-0.9871767537001914,-0.02903303317725658,-0.3113937973976135,-0.949837327003479,0,0,0,-1,309140.3202222917,unknown,2,2015-05-14 21:33:13.146,null,0,0,0,0,null,0,0.2866364,99.75592,192.168.152.8,100.96.38.157,5,0
2015-05-14 21:33:19.579,36,1431628393.134392,59.93365094508074,30.35731482440787,21.269,-1,-1,10,65,-9999,1431628399.562587,-12.05759429931641,-4.313117980957031,-43.82867431640625,56.35612869262695,45.96100234985352,20,309146.762734375,-0.026641845703125,-0.313720703125,-0.948760986328125,309146.749366375,-0.05109274551317018,0.03375849629395343,-0.02706597247458431,309146.729384375,-0.03567181499269437,-0.0305568077880509,0.3166593950555243,0.003467917675152421,0.03895809501409531,-0.008780892938375473,0.0008653094992041588,0.001136832754127681,0.01940216869115829,XArbitraryZVertical,-0.157356468820507,0.01789600797309299,0.02001828096809298,-0.9871767537001914,-0.02903303317725658,-0.3113937973976135,-0.949837327003479,0,0,0,-1,309140.3202222917,unknown,2,2015-05-14 21:33:13.146,null,0,0,0,0,null,0,0.2866364,99.75592,192.168.152.8,100.96.38.157,5,0
2015-05-14 21:33:19.584,37,1431628393.134392,59.93365094508074,30.35731482440787,21.269,-1,-1,10,65,-9999,1431628399.581266,-12.29518890380859,-4.211479187011719,-43.92721557617188,56.37998580932617,45.98485946655273,20,309146.772607375,-0.028045654296875,-0.3082427978515625,-0.956787109375,309146.769339375,-0.07148456997990692,0.03365916038529348,-0.01448812896224907,309146.749366375,-0.03585571141972385,-0.03015141091151095,0.3164146469291708,-0.02312305383384228,0.01864710077643394,-0.009191817604005337,-0.001867310726083815,0.008197945542633533,0.01828456670045853,XArbitraryZVertical,-0.157238078836625,0.01770850195303181,0.02007567829728459,-0.9871978335993495,-0.02865026704967022,-0.3111611902713776,-0.9499251842498779,0,0,0,-1,309140.3202222917,unknown,2,2015-05-14 21:33:13.146,null,0,0,0,0,null,0,0.2866364,99.75592,192.168.152.8,100.96.38.157,5,0
2015-05-14 21:33:19.594,38,1431628393.134392,59.93365094508074,30.35731482440787,21.269,-1,-1,10,65,-9999,1431628399.581266,-12.29518890380859,-4.211479187011719,-43.92721557617188,56.37998580932617,45.98485946655273,20,309146.782508375,-0.0249481201171875,-0.305877685546875,-0.9588775634765625,309146.779333375,-0.05871684308184903,0.03478141646865287,-0.01113707336260237,309146.759351375,-0.03590561107559446,-0.02990589466326704,0.3161220195236796,-0.04028153419494629,0.02812564186751842,-0.003995161503553391,-0.002082553459331393,0.0008244943455792964,0.0137286139652133,XArbitraryZVertical,-0.1570956483833114,0.01758898930768385,0.02007925984384722,-0.9872225726948726,-0.02841976657509804,-0.3108830749988556,-0.9500231742858887,0,0,0,-1,309140.3202222917,unknown,2,2015-05-14 21:33:13.146,null,0,0,0,0,null,0,0.2866364,99.75592,192.168.152.8,100.96.38.157,5,0
2015-05-14 21:33:19.604,39,1431628393.134392,59.93365094508074,30.35731482440787,21.269,-1,-1,10,65,-9999,1431628399.600546,-12.193359375,-4.109848022460938,-43.63153076171875,56.40170288085938,46.00657653808594,20,309146.792393375,-0.024383544921875,-0.3077850341796875,-0.9546966552734375,309146.779333375,-0.05871684308184903,0.03478141646865287,-0.01113707336260237,309146.769339375,-0.03591675749052579,-0.02967062036934108,0.3157397323506499,-0.04351435601711273,0.01854777336120605,0.003385956166312099,0.001557926996611059,-0.003200981998816133,0.001387568074278533,XArbitraryZVertical,-0.1569091914462815,0.01747078733322693,0.02006402151025619,-0.9872546339574536,-0.02819977328181267,-0.3105197250843048,-0.9501485824584961,0,0,0,-1,309140.3202222917,unknown,2,2015-05-14 21:33:13.146,null,0,0,0,0,null,0,0.2866364,99.75592,192.168.152.8,100.96.38.157,5,0
2015-05-14 21:33:19.614,40,1431628393.134392,59.93365094508074,30.35731482440787,21.269,-1,-1,10,65,-9999,1431628399.600546,-12.193359375,-4.109848022460938,-43.63153076171875,56.40170288085938,46.00657653808594,20,309146.802278375,-0.027069091796875,-0.309783935546875,-0.94342041015625,309146.789322375,-0.03311161446517318,0.02215350552782414,-0.005584116173678147,309146.769339375,-0.03591675749052579,-0.02967062036934108,0.3157397323506499,-0.04351435601711273,0.01854777336120605,0.003385956166312099,0.001557926996611059,-0.003200981998816133,0.001387568074278533,XArbitraryZVertical,-0.1569091914462815,0.01747078733322693,0.02006402151025619,-0.9872546339574536,-0.02819977328181267,-0.3105197250843048,-0.9501485824584961,0,0,0,-1,309140.3202222917,unknown,2,2015-05-14 21:33:13.146,null,0,0,0,0,null,0,0.2866364,99.75592,192.168.152.8,100.96.38.157,5,0
2015-05-14 21:33:19.624,41,1431628393.134392,59.93365094508074,30.35731482440787,21.269,-1,-1,10,65,-9999,1431628399.622539,-12.05758666992188,-4.109848022460938,-43.4344482421875,56.42316818237305,46.02804183959961,20,309146.812152375,-0.0276031494140625,-0.3111572265625,-0.9367523193359375,309146.799310375,-0.01495364952079492,0.01692785083687066,-0.005409679122277957,309146.789322375,-0.03577688424349796,-0.02935171404367556,0.3150701914430817,-0.005142592824995518,0.007042521145194769,0.01228980626910925,0.002954737981781363,0.004005522467195988,-0.008512461557984352,XArbitraryZVertical,-0.1565830576809871,0.01729725045700922,0.0199660453080245,-0.9873114545110152,-0.02790285833179951,-0.3098832070827484,-0.9503651261329651,0,0,0,-1,309140.3202222917,unknown,2,2015-05-14 21:33:13.146,null,0,0,0,0,null,0,0.2866364,99.75592,192.168.152.8,100.96.38.157,5,0
2015-05-14 21:33:19.634,42,1431628393.134392,59.93365094508074,30.35731482440787,21.269,-1,-1,10,65,-9999,1431628399.622539,-12.05758666992188,-4.109848022460938,-43.4344482421875,56.42316818237305,46.02804183959961,20,309146.822050375,-0.0282135009765625,-0.30767822265625,-0.929840087890625,309146.809300375,-0.003232012298920164,0.0254827232065322,-0.007365238310723141,309146.789322375,-0.03577688424349796,-0.02935171404367556,0.3150701914430817,-0.005142592824995518,0.007042521145194769,0.01228980626910925,0.002954737981781363,0.004005522467195988,-0.008512461557984352,XArbitraryZVertical,-0.1565830576809871,0.01729725045700922,0.0199660453080245,-0.9873114545110152,-0.02790285833179951,-0.3098832070827484,-0.9503651261329651,0,0,0,-1,309140.3202222917,unknown,2,2015-05-14 21:33:13.146,null,0,0,0,0,null,0,0.2866364,99.75592,192.168.152.8,100.96.38.157,5,0
2015-05-14 21:33:19.643,43,1431628393.134392,59.93365094508074,30.35731482440787,21.269,-1,-1,10,65,-9999,1431628399.640814,-12.15941619873047,-4.21148681640625,-43.00738525390625,56.45617294311523,46.0610466003418,20,309146.831930375,-0.02392578125,-0.3058013916015625,-0.9274139404296875,309146.829266375,-0.01383512186296164,0.03180852974379741,-0.01705408467254042,309146.809300375,-0.03554086702989078,-0.02924039543701641,0.3153532375628449,0.02473676949739456,0.01037219166755676,0.01050848048180342,0.0007254074444063008,0.0003683733521029353,0.006860080640763044,XArbitraryZVertical,-0.1567259401575386,0.01722597763228247,0.01984246686169723,-0.9872925209304426,-0.027794498950243,-0.3101523220539093,-0.950280487537384,0,0,0,-1,309140.3202222917,unknown,2,2015-05-14 21:33:13.146,null,0,0,0,0,null,0,0.2866364,99.75592,192.168.152.8,100.96.38.157,5,0
2015-05-14 21:33:19.661,44,1431628393.134392,59.93365094508074,30.35731482440787,21.269,-1,-1,10,65,-9999,1431628399.640814,-12.15941619873047,-4.21148681640625,-43.00738525390625,56.45617294311523,46.0610466003418,20,309146.841816375,-0.0174102783203125,-0.305145263671875,-0.925872802734375,309146.839266375,-0.0394776347348986,0.02849875314104694,-0.01202363968948974,309146.819278375,-0.03546128828505389,-0.02915452300163321,0.3156831031786536,0.02264984324574471,0.01142574846744537,0.005154686979949474,0.0001067629564204253,-0.0006913356482982635,0.01342823822051287,XArbitraryZVertical,-0.1568903240072136,0.01717986087588666,0.01979836842319811,-0.987268100984213,-0.02770991250872612,-0.3104659020900726,-0.9501805305480957,0,0,0,-1,309140.3202222917,unknown,2,2015-05-14 21:33:13.146,null,0,0,0,0,null,0,0.2866364,99.75592,192.168.152.8,100.96.38.157,5,0
2015-05-14 21:33:19.663,45,1431628393.134392,59.93365094508074,30.35731482440787,21.269,-1,-1,10,65,-9999,1431628399.660836,-12.02363586425781,-4.008224487304688,-43.07308959960938,56.47763442993164,46.0825080871582,20,309146.851713375,-0.0241851806640625,-0.3060302734375,-0.92742919921875,309146.839266375,-0.0394776347348986,0.02849875314104694,-0.01202363968948974,309146.829266375,-0.03544067511863817,-0.02902926318864365,0.3159185772989307,0.01413443312048912,0.01669793576002121,0.0008195848786272109,-0.0006247309502214193,0.003011497668921947,0.02027083002030849,XArbitraryZVertical,-0.1570079867152613,0.01711820271112534,0.01977972629635558,-0.9872508402990601,-0.02758876979351044,-0.3106897175312042,-0.950110912322998,0,0,0,-1,309140.3202222917,unknown,2,2015-05-14 21:33:13.146,null,0,0,0,0,null,0,0.2866364,99.75592,192.168.152.8,100.96.38.157,5,0
2015-05-14 21:33:19.673,46,1431628393.134392,59.93365094508074,30.35731482440787,21.269,-1,-1,10,65,-9999,1431628399.660836,-12.02363586425781,-4.008224487304688,-43.07308959960938,56.47763442993164,46.0825080871582,20,309146.861593375,-0.0272064208984375,-0.3083038330078125,-0.9404449462890625,309146.849254375,-0.07153090898287429,0.03259549384591583,-0.009158344672673492,309146.829266375,-0.03544067511863817,-0.02902926318864365,0.3159185772989307,0.01413443312048912,0.01669793576002121,0.0008195848786272109,-0.0006247309502214193,0.003011497668921947,0.02027083002030849,XArbitraryZVertical,-0.1570079867152613,0.01711820271112534,0.01977972629635558,-0.9872508402990601,-0.02758876979351044,-0.3106897175312042,-0.950110912322998,0,0,0,-1,309140.3202222917,unknown,2,2015-05-14 21:33:13.146,null,0,0,0,0,null,0,0.2866364,99.75592,192.168.152.8,100.96.38.157,5,0
2015-05-14 21:33:19.683,47,1431628393.134392,59.93365094508074,30.35731482440787,21.269,-1,-1,10,65,-9999,1431628399.682183,-11.85392761230469,-4.245361328125,-43.171630859375,56.49970245361328,46.10457611083984,20,309146.871480375,-0.02911376953125,-0.3071746826171875,-0.958038330078125,309146.859242375,-0.09294911573372755,0.05267865794231237,-0.009286709037215311,309146.849254375,-0.03540071495075936,-0.02852142958670395,0.3155980860940851,-0.04356099292635918,0.01748612523078918,0.008714839816093445,0.009698827750980854,0.005239810328930616,0.02435148693621159,XArbitraryZVertical,-0.1568551229417858,0.01686194397633668,0.01971832276567307,-0.987280777185276,-0.02710910700261593,-0.3103850781917572,-0.9502242803573608,0,0,0,-1,309140.3202222917,unknown,2,2015-05-14 21:33:13.146,null,0,0,0,0,null,0,0.2866364,99.75592,192.168.152.8,100.96.38.157,5,0
2015-05-14 21:33:19.693,48,1431628393.134392,59.93365094508074,30.35731482440787,21.269,-1,-1,10,65,-9999,1431628399.682183,-11.85392761230469,-4.245361328125,-43.171630859375,56.49970245361328,46.10457611083984,20,309146.881364375,-0.0281219482421875,-0.3096771240234375,-0.9630279541015625,309146.869232375,-0.08449997085934216,0.06652869350737846,-0.00591328288441194,309146.849254375,-0.03540071495075936,-0.02852142958670395,0.3155980860940851,-0.04356099292635918,0.01748612523078918,0.008714839816093445,0.009698827750980854,0.005239810328930616,0.02435148693621159,XArbitraryZVertical,-0.1568551229417858,0.01686194397633668,0.01971832276567307,-0.987280777185276,-0.02710910700261593,-0.3103850781917572,-0.9502242803573608,0,0,0,-1,309140.3202222917,unknown,2,2015-05-14 21:33:13.146,null,0,0,0,0,null,0,0.2866364,99.75592,192.168.152.8,100.96.38.157,5,0
2015-05-14 21:33:19.702,49,1431628393.134392,59.93365094508074,30.35731482440787,21.269,-1,-1,10,65,-9999,1431628399.700112,-11.75210571289062,-3.804962158203125,-42.87594604492188,56.50948333740234,46.11435699462891,20,309146.891256375,-0.0269775390625,-0.3073272705078125,-0.95660400390625,309146.889209375,-0.03760756301744495,0.06143779476758299,0.002054628780996132,309146.869232375,-0.03524727390123015,-0.02770551982099171,0.3144691465033809,-0.05652970820665359,0.05141953378915787,0.01195976976305246,-0.0008629305521026254,0.001007860992103815,0.01015081256628036,XArbitraryZVertical,-0.1563070532370035,0.01643854487733198,0.01957242509919256,-0.9873777390271744,-0.02634349092841148,-0.3093116879463196,-0.9505957365036011,0,0,0,-1,309140.3202222917,unknown,2,2015-05-14 21:33:13.146,null,0,0,0,0,null,0,0.2866364,99.75592,192.168.152.8,100.96.38.157,5,0
2015-05-14 21:33:19.713,50,1431628393.134392,59.93365094508074,30.35731482440787,21.269,-1,-1,10,65,-9999,1431628399.700112,-11.75210571289062,-3.804962158203125,-42.87594604492188,56.50948333740234,46.11435699462891,20,309146.901141375,-0.028106689453125,-0.3108978271484375,-0.9562530517578125,309146.889209375,-0.03760756301744495,0.06143779476758299,0.002054628780996132,309146.879221375,-0.03508370726518073,-0.02738591801339619,0.3139827269082579,-0.03304430469870567,0.0377192310988903,0.01641582511365414,-0.003069975879043341,0.001674408908002079,-0.007283913902938366,XArbitraryZVertical,-0.1560713460260289,0.01626428498300318,0.01946407434770324,-0.9874200513425886,-0.02604379318654537,-0.3088490962982178,-0.9507544040679932,0,0,0,-1,309140.3202222917,unknown,2,2015-05-14 21:33:13.146,null,0,0,0,0,null,0,0.2866364,99.75592,192.168.152.8,100.96.38.157,5,0
2015-05-14 21:33:19.722,51,1431628393.134392,59.93365094508074,30.35731482440787,21.269,-1,-1,10,65,-9999,1431628399.7205,-11.81998443603516,-3.872711181640625,-43.13876342773438,56.52283477783203,46.12770843505859,20,309146.911027375,-0.0259857177734375,-0.3082275390625,-0.953643798828125,309146.899198375,-0.01634168908094422,0.07428648176277927,0.004498878029470857,309146.889209375,-0.03487551945817574,-0.02705941533008507,0.3137694852353514,-0.009638127870857716,0.04632829874753952,0.01992776058614254,-0.002386798616498709,-0.001030856044963002,-0.0121992714703083,XArbitraryZVertical,-0.1559709080694125,0.01608522992853375,0.01933467642980657,-0.9874413964896862,-0.0257351491600275,-0.3086462616920471,-0.9508286714553833,0,0,0,-1,309140.3202222917,unknown,2,2015-05-14 21:33:13.146,null,0,0,0,0,null,0,0.2866364,99.75592,192.168.152.8,100.96.38.157,5,0
2015-05-14 21:33:19.740,52,1431628393.134392,59.93365094508074,30.35731482440787,21.269,-1,-1,10,65,-9999,1431628399.7205,-11.81998443603516,-3.872711181640625,-43.13876342773438,56.52283477783203,46.12770843505859,20,309146.920919375,-0.025177001953125,-0.304046630859375,-0.94561767578125,309146.919176375,-0.02052391725680466,0.05301954256184251,0.004333762041885944,309146.899198375,-0.03463339275074155,-0.02657755975384956,0.313772268739996,0.01162739284336567,0.05917692184448242,0.02237201482057571,-0.001700577209703624,0.001321645104326308,-0.005763890221714973,XArbitraryZVertical,-0.1559788535733872,0.01582846526387793,0.01917756906851192,-0.9874473544295628,-0.02527696266770363,-0.3086489140987396,-0.9508401155471802,0,0,0,-1,309140.3202222917,unknown,2,2015-05-14 21:33:13.146,null,0,0,0,0,null,0,0.2866364,99.75592,192.168.152.8,100.96.38.157,5,0
2015-05-14 21:33:19.743,53,1431628393.134392,59.93365094508074,30.35731482440787,21.269,-1,-1,10,65,-9999,1431628399.7205,-11.81998443603516,-3.872711181640625,-43.13876342773438,56.52283477783203,46.12770843505859,20,309146.930796375,-0.0229949951171875,-0.3033905029296875,-0.938507080078125,309146.919176375,-0.02052391725680466,0.05301954256184251,0.004333762041885944,309146.909188375,-0.0343837145170625,-0.02617216879148466,0.3139441288068953,0.01701769046485424,0.0485762357711792,0.0223839245736599,-0.00321658025495708,-0.00208544684574008,-0.00545580917969346,XArbitraryZVertical,-0.1560695447125373,0.01561012419091701,0.0190235594881125,-0.9874394793709463,-0.02489010989665985,-0.3088123798370361,-0.9507972598075867,0,0,0,-1,309140.3202222917,unknown,2,2015-05-14 21:33:13.146,null,0,0,0,0,null,0,0.2866364,99.75592,192.168.152.8,100.96.38.157,5,0
2015-05-14 21:33:19.753,54,1431628399.735022,59.93364945301327,30.35731146237405,21.26199,-1,-1,10,65,-9999,1431628399.744048,-11.51450347900391,-3.703330993652344,-42.97454833984375,56.52529525756836,46.13016891479492,20,309146.940686375,-0.020965576171875,-0.3074798583984375,-0.9361724853515625,309146.929165375,-0.0387149053986999,0.06143166949707581,0.006311159151269779,309146.909188375,-0.0343837145170625,-0.02617216879148466,0.3139441288068953,0.01701769046485424,0.0485762357711792,0.0223839245736599,-0.00321658025495708,-0.00208544684574008,-0.00545580917969346,XArbitraryZVertical,-0.1560695447125373,0.01561012419091701,0.0190235594881125,-0.9874394793709463,-0.02489010989665985,-0.3088123798370361,-0.9507972598075867,0,0,0,-1,309140.3202222917,unknown,2,2015-05-14 21:33:13.146,null,0,0,0,0,null,0,0.2866364,99.75592,192.168.152.8,100.96.38.157,5,0
2015-05-14 21:33:19.762,55,1431628399.735022,59.93364945301327,30.35731146237405,21.26199,-1,-1,10,65,-9999,1431628399.759865,-11.31084442138672,-3.500076293945312,-43.23739624023438,56.51361846923828,46.11849212646484,20,309146.950582375,-0.0261688232421875,-0.3018035888671875,-0.93670654296875,309146.949142375,-0.09852843821744356,0.06327138117810253,0.01205453235813466,309146.929165375,-0.03388376286563036,-0.02552445787281887,0.3139159057573446,-0.01073296833783388,0.0463193841278553,0.0241948626935482,-0.0009025171748362482,0.004738905467092991,0.005204201210290194,XArbitraryZVertical,-0.1560655793661818,0.01525111212475438,0.0187260361947501,-0.9874514034039785,-0.02427448518574238,-0.3087855279445648,-0.9508218765258789,0,0,0,-1,309140.3202222917,unknown,2,2015-05-14 21:33:13.146,null,0,0,0,0,null,0,0.2866364,99.75592,192.168.152.8,100.96.38.157,5,0
2015-05-14 21:33:19.773,56,1431628399.735022,59.93364945301327,30.35731146237405,21.26199,-1,-1,10,65,-9999,1431628399.759865,-11.31084442138672,-3.500076293945312,-43.23739624023438,56.51361846923828,46.11849212646484,20,309146.960465375,-0.0283203125,-0.2960662841796875,-0.9382781982421875,309146.949142375,-0.09852843821744356,0.06327138117810253,0.01205453235813466,309146.939154375,-0.03363577638979713,-0.0251123980485566,0.3135495802279479,-0.04169239103794098,0.04617222398519516,0.02598151564598083,0.0008905308204703033,0.005046588834375143,0.01243773568421602,XArbitraryZVertical,-0.1558904187547134,0.01502563262885088,0.01856965375651816,-0.9874854812421009,-0.02388552576303482,-0.3084370791912079,-0.9509448409080505,0,0,0,-1,309140.3202222917,unknown,2,2015-05-14 21:33:13.146,null,0,0,0,0,null,0,0.2866364,99.75592,192.168.152.8,100.96.38.157,5,0
2015-05-14 21:33:19.781,57,1431628399.735022,59.93364945301327,30.35731146237405,21.26199,-1,-1,10,65,-9999,1431628399.779893,-11.039306640625,-3.432327270507812,-42.97454833984375,56.4954833984375,46.10035705566406,20,309146.970357375,-0.0259857177734375,-0.2942657470703125,-0.9361114501953125,309146.959129375,-0.113500197233651,0.06957428452999308,0.01298903558464347,309146.949142375,-0.033363539399324,-0.0246769462179163,0.3129677019632928,-0.07054639607667923,0.04815946519374847,0.02993805333971977,0.002510281279683113,0.0004036727477796376,0.01496189832687378,XArbitraryZVertical,-0.1556091475735497,0.01478517732833946,0.0183985080475845,-0.9875366760907787,-0.02347585745155811,-0.3078835308551788,-0.9511343836784363,0,0,0,-1,309140.3202222917,unknown,2,2015-05-14 21:33:13.146,null,0,0,0,0,null,0,0.2866364,99.75592,192.168.152.8,100.96.38.157,5,0
2015-05-14 21:33:19.791,58,1431628399.735022,59.93364945301327,30.35731146237405,21.26199,-1,-1,10,65,-9999,1431628399.779893,-11.039306640625,-3.432327270507812,-42.97454833984375,56.4954833984375,46.10035705566406,20,309146.980247375,-0.0225372314453125,-0.2932891845703125,-0.9427490234375,309146.969120375,-0.1263456884355392,0.07269977038531007,0.01606418769535797,309146.949142375,-0.033363539399324,-0.0246769462179163,0.3129677019632928,-0.07054639607667923,0.04815946519374847,0.02993805333971977,0.002510281279683113,0.0004036727477796376,0.01496189832687378,XArbitraryZVertical,-0.1556091475735497,0.01478517732833946,0.0183985080475845,-0.9875366760907787,-0.02347585745155811,-0.3078835308551788,-0.9511343836784363,0,0,0,-1,309140.3202222917,unknown,2,2015-05-14 21:33:13.146,null,0,0,0,0,null,0,0.2866364,99.75592,192.168.152.8,100.96.38.157,5,0
2015-05-14 21:33:19.803,59,1431628399.735022,59.93364945301327,30.35731146237405,21.26199,-1,-1,10,65,-9999,1431628399.779893,-11.039306640625,-3.432327270507812,-42.97454833984375,56.4954833984375,46.10035705566406,20,309146.990112375,-0.019683837890625,-0.3043365478515625,-0.9511871337890625,309146.979108375,-0.1477873310039852,0.08853252938194014,0.02018090210840245,309146.969120375,-0.03269001166575053,-0.02392543857773095,0.3110401546704809,-0.09836448729038239,0.0575871579349041,0.0339479111135006,-0.005545091349631548,0.00998276099562645,0.01346508134156466,XArbitraryZVertical,-0.1546689913533209,0.01434793018757637,0.01799852615720667,-0.9876981791363417,-0.02277522161602974,-0.3060490489006042,-0.9517433047294617,0,0,0,-1,309140.3202222917,unknown,2,2015-05-14 21:33:13.146,null,0,0,0,0,null,0,0.2866364,99.75592,192.168.152.8,100.96.38.157,5,0
2015-05-14 21:33:19.822,60,1431628399.735022,59.93364945301327,30.35731146237405,21.26199,-1,-1,10,65,-9999,1431628399.819794,-11.0732421875,-3.3306884765625,-42.87594604492188,56.46368026733398,46.06855392456055,20,309147.000003375,-0.018646240234375,-0.3106231689453125,-0.9505462646484375,309146.989092375,-0.1649876232203709,0.1033223944956952,0.02754108041305444,309146.969120375,-0.03269001166575053,-0.02392543857773095,0.3110401546704809,-0.09836448729038239,0.0575871579349041,0.0339479111135006,-0.005545091349631548,0.00998276099562645,0.01346508134156466,XArbitraryZVertical,-0.1546689913533209,0.01434793018757637,0.01799852615720667,-0.9876981791363417,-0.02277522161602974,-0.3060490489006042,-0.9517433047294617,0,0,0,-1,309140.3202222917,unknown,2,2015-05-14 21:33:13.146,null,0,0,0,0,null,0,0.2866364,99.75592,192.168.152.8,100.96.38.157,5,0
2015-05-14 21:33:19.823,61,1431628399.735022,59.93364945301327,30.35731146237405,21.26199,-1,-1,10,65,-9999,1431628399.819794,-11.0732421875,-3.3306884765625,-42.87594604492188,56.46368026733398,46.06855392456055,20,309147.009879375,-0.0127410888671875,-0.31195068359375,-0.9559326171875,309147.009075375,-0.1748402539892281,0.1532052659256424,0.03304423648959418,309146.989092375,-0.03189580540520551,-0.02270076148307202,0.3083047704341674,-0.1370078921318054,0.08820948004722595,0.04542488977313042,-0.0009086834616027772,0.01015459001064301,0.009854819625616074,XArbitraryZVertical,-0.153334319447783,0.01366254200321874,0.01749961773948798,-0.9879249388513611,-0.02162854745984077,-0.3034437894821167,-0.952603816986084,0,0,0,-1,309140.3202222917,unknown,2,2015-05-14 21:33:13.146,null,0,0,0,0,null,0,0.2866364,99.75592,192.168.152.8,100.96.38.157,5,0
2015-05-14 21:33:19.834,62,1431628399.735022,59.93364945301327,30.35731146237405,21.26199,-1,-1,10,65,-9999,1431628399.819794,-11.0732421875,-3.3306884765625,-42.87594604492188,56.46368026733398,46.06855392456055,20,309147.019765375,-0.01611328125,-0.3186492919921875,-0.94677734375,309147.009075375,-0.1748402539892281,0.1532052659256424,0.03304423648959418,309146.999087375,-0.03141380944952744,-0.02179618585233455,0.3068779296573839,-0.1446175426244736,0.1083570271730423,0.05185499787330627,0.001092414255253971,-0.002252645790576935,0.001867777202278376,XArbitraryZVertical,-0.1526405095658201,0.01316887728112743,0.01718620919246532,-0.9880445788142519,-0.02077625133097172,-0.3020839095115662,-0.9530549049377441,0,0,0,-1,309140.3202222917,unknown,2,2015-05-14 21:33:13.146,null,0,0,0,0,null,0,0.2866364,99.75592,192.168.152.8,100.96.38.157,5,0
2015-05-14 21:33:19.841,63,1431628399.735022,59.93364945301327,30.35731146237405,21.26199,-1,-1,10,65,-9999,1431628399.819794,-11.0732421875,-3.3306884765625,-42.87594604492188,56.46368026733398,46.06855392456055,20,309147.029662375,-0.0103912353515625,-0.312469482421875,-0.942474365234375,309147.019076375,-0.1598743539274188,0.1660262560455019,0.02474529390068926,309147.009075375,-0.03091901752596356,-0.02058465407266334,0.3055616879261716,-0.1468597054481506,0.1380927562713623,0.05092783272266388,0.0009835078381001949,-0.009794277139008045,0.002929823473095894,XArbitraryZVertical,-0.1520036718943829,0.01252356424546461,0.01684415905754199,-0.9881570312328183,-0.01962974853813648,-0.3008289039134979,-0.9534760713577271,0,0,0,-1,309140.3202222917,unknown,2,2015-05-14 21:33:13.146,null,0,0,0,0,null,0,0.2866364,99.75592,192.168.152.8,100.96.38.157,5,0
2015-05-14 21:33:19.850,64,1431628399.735022,59.93364945301327,30.35731146237405,21.26199,-1,-1,10,65,-9999,1431628399.841726,-10.93747711181641,-3.262931823730469,-43.27017211914062,55.40542602539062,45.01029968261719,20,309147.039541375,-0.013336181640625,-0.3080902099609375,-0.9398193359375,309147.039041375,-0.1707618890958807,0.1978433079047875,0.03440537812273368,309147.019076375,-0.03051750562305206,-0.01911558107640266,0.30435403556714,-0.1318929493427277,0.1509143859148026,0.04262863099575043,0.005494843237102032,-0.01227372232824564,-0.002066185465082526,XArbitraryZVertical,-0.1514216319620074,0.01175897567906383,0.01652981754102796,-0.9882610894885016,-0.01823593303561211,-0.2996769547462463,-0.9538664221763611,0,0,0,-1,309140.3202222917,unknown,2,2015-05-14 21:33:13.146,null,0,0,0,0,null,0,0.2866364,99.75592,192.168.152.8,100.96.38.157,5,0
2015-05-14 21:33:19.863,65,1431628399.735022,59.93364945301327,30.35731146237405,21.26199,-1,-1,10,65,-9999,1431628399.841726,-10.93747711181641,-3.262931823730469,-43.27017211914062,55.40542602539062,45.01029968261719,20,309147.049433375,-0.0088958740234375,-0.292144775390625,-0.931396484375,309147.039041375,-0.1707618890958807,0.1978433079047875,0.03440537812273368,309147.029053375,-0.03007379562076147,-0.01766038783394729,0.3033806566985079,-0.1330368369817734,0.1604694873094559,0.04693775251507759,0.0007397155277431011,-0.01990111544728279,0.007405816577374935,XArbitraryZVertical,-0.1509550449177435,0.01099973753670275,0.01619724641847585,-0.9883467151746208,-0.01685299724340439,-0.2987481653690338,-0.9541831612586975,0,0,0,-1,309140.3202222917,unknown,2,2015-05-14 21:33:13.146,null,0,0,0,0,null,0,0.2866364,99.75592,192.168.152.8,100.96.38.157,5,0
2015-05-14 21:33:19.871,66,1431628399.735022,59.93364945301327,30.35731146237405,21.26199,-1,-1,10,65,-9999,1431628399.863276,-11.31084442138672,-3.432319641113281,-43.23733520507812,56.72012329101562,46.32499694824219,20,309147.059319375,-0.001861572265625,-0.284698486328125,-0.9385223388671875,309147.049017375,-0.1954520555620054,0.2104722841100523,0.04487133489063608,309147.039041375,-0.02960198775779231,-0.01592478184608369,0.3022691858960433,-0.1427772045135498,0.1827322393655777,0.05228831619024277,0.004810929298400879,-0.01478220243006945,0.01206802669912577,XArbitraryZVertical,-0.1504221229164326,0.01009896537689898,0.01582995037599975,-0.988443528233516,-0.01520216464996338,-0.297687292098999,-0.9545423984527588,0,0,0,-1,309140.3202222917,unknown,2,2015-05-14 21:33:13.146,null,0,0,0,0,null,0,0.2866364,99.75592,192.168.152.8,100.96.38.157,5,0
2015-05-14 21:33:19.881,67,1431628399.735022,59.93364945301327,30.35731146237405,21.26199,-1,-1,10,65,-9999,1431628399.863276,-11.31084442138672,-3.432319641113281,-43.23733520507812,56.72012329101562,46.32499694824219,20,309147.069223375,-0.0090484619140625,-0.3049163818359375,-0.9317779541015625,309147.059019375,-0.208347081560169,0.1870583044382936,-0.04825354947503671,309147.039041375,-0.02960198775779231,-0.01592478184608369,0.3022691858960433,-0.1427772045135498,0.1827322393655777,0.05228831619024277,0.004810929298400879,-0.01478220243006945,0.01206802669912577,XArbitraryZVertical,-0.1504221229164326,0.01009896537689898,0.01582995037599975,-0.988443528233516,-0.01520216464996338,-0.297687292098999,-0.9545423984527588,0,0,0,-1,309140.3202222917,unknown,2,2015-05-14 21:33:13.146,null,0,0,0,0,null,0,0.2866364,99.75592,192.168.152.8,100.96.38.157,5,0
2015-05-14 21:33:19.899,68,1431628399.735022,59.93364945301327,30.35731146237405,21.26199,-1,-1,10,65,-9999,1431628399.882856,-11.24296569824219,-2.958038330078125,-43.5001220703125,56.02336883544922,45.62824249267578,20,309147.079091375,-0.003936767578125,-0.30572509765625,-0.940216064453125,309147.069007375,-0.2068759513740093,0.1594503786818782,-0.07934062887953165,309147.049017375,-0.02900700931077322,-0.01413875167422113,0.3009023059494266,-0.1674660891294479,0.195361390709877,0.06275416165590286,0.0001668582553975284,-0.01170811802148819,0.01515465509146452,XArbitraryZVertical,-0.149763327347771,0.009162439439853631,0.01539827313079013,-0.9885595018357889,-0.01350304018706083,-0.2963820993900299,-0.9549739956855774,0,0,0,-1,309140.3202222917,unknown,2,2015-05-14 21:33:13.146,null,0,0,0,0,null,0,0.2866364,99.75592,192.168.152.8,100.96.38.157,5,0
2015-05-14 21:33:19.900,69,1431628399.735022,59.93364945301327,30.35731146237405,21.26199,-1,-1,10,65,-9999,1431628399.882856,-11.24296569824219,-2.958038330078125,-43.5001220703125,56.02336883544922,45.62824249267578,20,309147.088978375,-0.0022125244140625,-0.3029327392578125,-0.9551544189453125,309147.069007375,-0.2068759513740093,0.1594503786818782,-0.07934062887953165,309147.059019375,-0.02908699628508725,-0.0122202393264543,0.2991661523298859,-0.1803609132766724,0.1719478219747543,-0.03037089295685291,0.002781283110380173,0.002578723477199674,0.02411474101245403,XArbitraryZVertical,-0.1489194689661782,0.008208453928270059,0.0152907837907252,-0.9886970238541241,-0.01167715713381767,-0.2947235107421875,-0.955511212348938,0,0,0,-1,309140.3202222917,unknown,2,2015-05-14 21:33:13.146,null,0,0,0,0,null,0,0.2866364,99.75592,192.168.152.8,100.96.38.157,5,0
2015-05-14 21:33:19.910,70,1431628399.735022,59.93364945301327,30.35731146237405,21.26199,-1,-1,10,65,-9999,1431628399.901353,-10.83565521240234,-3.296821594238281,-43.56585693359375,55.71585083007812,45.32072448730469,20,309147.098863375,-0.0012054443359375,-0.3044586181640625,-0.9589080810546875,309147.078981375,-0.2127317099788755,0.1657860389151767,-0.02707609248672661,309147.069007375,-0.02979034710662254,-0.01037975855203276,0.2973120306320526,-0.178890272974968,0.144340768456459,-0.06145829707384109,0.008062620647251606,0.00825274083763361,0.01755354180932045,XArbitraryZVertical,-0.1480142320070373,0.007338047366364944,0.01549873165853173,-0.9888365534815099,-0.009924192912876606,-0.292951226234436,-0.95607590675354,0,0,0,-1,309140.3202222917,unknown,2,2015-05-14 21:33:13.146,null,0,0,0,0,null,0,0.2866364,99.75592,192.168.152.8,100.96.38.157,5,0
2015-05-14 21:33:19.922,71,1431628399.735022,59.93364945301327,30.35731146237405,21.26199,-1,-1,10,65,-9999,1431628399.901353,-10.83565521240234,-3.296821594238281,-43.56585693359375,55.71585083007812,45.32072448730469,20,309147.108747375,-0.005462646484375,-0.3074798583984375,-0.9593658447265625,309147.088986375,-0.2141335979766932,0.1105249136638145,0.03129933334337427,309147.069007375,-0.02979034710662254,-0.01037975855203276,0.2973120306320526,-0.178890272974968,0.144340768456459,-0.06145829707384109,0.008062620647251606,0.00825274083763361,0.01755354180932045,XArbitraryZVertical,-0.1480142320070373,0.007338047366364944,0.01549873165853173,-0.9888365534815099,-0.009924192912876606,-0.292951226234436,-0.95607590675354,0,0,0,-1,309140.3202222917,unknown,2,2015-05-14 21:33:13.146,null,0,0,0,0,null,0,0.2866364,99.75592,192.168.152.8,100.96.38.157,5,0
2015-05-14 21:33:19.930,72,1431628399.735022,59.93364945301327,30.35731146237405,21.26199,-1,-1,10,65,-9999,1431628399.922614,-10.4622802734375,-3.330703735351562,-43.92721557617188,55.287353515625,44.89222717285156,20,309147.118633375,-0.0059356689453125,-0.3069610595703125,-0.9600677490234375,309147.108952375,-0.1884436808373529,0.08939965463286995,0.03146977565313933,309147.098974375,-0.02913105088330877,-0.006941542401309251,0.292871592297223,-0.1797848343849182,0.07100977003574371,0.06405790150165558,0.005440465174615383,-0.01575588993728161,-0.001512359944172204,XArbitraryZVertical,-0.1458466418333398,0.005558465590465491,0.01491541644247477,-0.9891791500423791,-0.006645909510552883,-0.2887027263641357,-0.9573957324028015,0,0,0,-1,309140.3202222917,unknown,2,2015-05-14 21:33:13.146,null,0,0,0,0,null,0,0.2866364,99.75592,192.168.152.8,100.96.38.157,5,0
2015-05-14 21:33:19.939,73,1431628399.735022,59.93364945301327,30.35731146237405,21.26199,-1,-1,10,65,-9999,1431628399.922614,-10.4622802734375,-3.330703735351562,-43.92721557617188,55.287353515625,44.89222717285156,20,309147.128530375,-0.0054473876953125,-0.30450439453125,-0.9544525146484375,309147.128940375,-0.1404971938360023,0.04712783128226022,0.05631866652023267,309147.108952375,-0.02859434881514099,-0.006339603742857445,0.2915096521170442,-0.1604508012533188,0.07429170608520508,0.04935130849480629,0.0006094556301832199,-0.02008134499192238,-0.001573996851220727,XArbitraryZVertical,-0.1451788827994339,0.005212295613478204,0.01460535412758326,-0.9892838862502273,-0.00607210211455822,-0.2873985171318054,-0.9577918648719788,0,0,0,-1,309140.3202222917,unknown,2,2015-05-14 21:33:13.146,null,0,0,0,0,null,0,0.2866364,99.75592,192.168.152.8,100.96.38.157,5,0
2015-05-14 21:33:19.950,74,1431628399.735022,59.93364945301327,30.35731146237405,21.26199,-1,-1,10,65,-9999,1431628399.940477,-10.56410980224609,-3.296829223632812,-43.96002197265625,56.69308471679688,46.29795837402344,20,309147.138410375,-0.0053253173828125,-0.3022308349609375,-0.9497528076171875,309147.128940375,-0.1404971938360023,0.04712783128226022,0.05631866652023267,309147.108952375,-0.02859434881514099,-0.006339603742857445,0.2915096521170442,-0.1604508012533188,0.07429170608520508,0.04935130849480629,0.0006094556301832199,-0.02008134499192238,-0.001573996851220727,XArbitraryZVertical,-0.1451788827994339,0.005212295613478204,0.01460535412758326,-0.9892838862502273,-0.00607210211455822,-0.2873985171318054,-0.9577918648719788,0,0,0,-1,309140.3202222917,unknown,2,2015-05-14 21:33:13.146,null,0,0,0,0,null,0,0.2866364,99.75592,192.168.152.8,100.96.38.157,5,0
2015-05-14 21:33:19.960,75,1431628399.735022,59.93364945301327,30.35731146237405,21.26199,-1,-1,10,65,-9999,1431628399.940477,-10.56410980224609,-3.296829223632812,-43.96002197265625,56.69308471679688,46.29795837402344,20,309147.148296375,-0.00238037109375,-0.2943115234375,-0.9424285888671875,309147.138920375,-0.1216718407224502,0.07589503106118714,0.08443791920594332,309147.128940375,-0.02743241089156789,-0.005737539764951396,0.2895731825062783,-0.1125009655952454,0.03201998770236969,0.07420008629560471,5.124423842062242e-05,-0.01896119117736816,0.003897548653185368,XArbitraryZVertical,-0.1442281559965388,0.00481740338588,0.01398607773468994,-0.9894338892882402,-0.005498631857335567,-0.2855432033538818,-0.9583500623703003,0,0,0,-1,309140.3202222917,unknown,2,2015-05-14 21:33:13.146,null,0,0,0,0,null,0,0.2866364,99.75592,192.168.152.8,100.96.38.157,5,0
2015-05-14 21:33:19.978,76,1431628399.735022,59.93364945301327,30.35731146237405,21.26199,-1,-1,10,65,-9999,1431628399.960664,-10.32651519775391,-3.12744140625,-43.99288940429688,56.3700065612793,45.97488021850586,20,309147.158182375,-0.005767822265625,-0.2943115234375,-0.9427337646484375,309147.148919375,-0.09078929208967329,0.09516433312845547,0.08275666560977629,309147.128940375,-0.02743241089156789,-0.005737539764951396,0.2895731825062783,-0.1125009655952454,0.03201998770236969,0.07420008629560471,5.124423842062242e-05,-0.01896119117736816,0.003897548653185368,XArbitraryZVertical,-0.1442281559965388,0.00481740338588,0.01398607773468994,-0.9894338892882402,-0.005498631857335567,-0.2855432033538818,-0.9583500623703003,0,0,0,-1,309140.3202222917,unknown,2,2015-05-14 21:33:13.146,null,0,0,0,0,null,0,0.2866364,99.75592,192.168.152.8,100.96.38.157,5,0
2015-05-14 21:33:19.980,77,1431628399.735022,59.93364945301327,30.35731146237405,21.26199,-1,-1,10,65,-9999,1431628399.960664,-10.32651519775391,-3.12744140625,-43.99288940429688,56.3700065612793,45.97488021850586,20,309147.168069375,-0.007049560546875,-0.2957305908203125,-0.963409423828125,309147.158907375,-0.06295126921507502,0.09317362021362123,0.07345237970936647,309147.138920375,-0.02643446617092035,-0.005499486035576507,0.2889029489622736,-0.09367392212152481,0.06078724563121796,0.1023192852735519,-5.377310299081728e-05,-0.01733002439141273,0.008789699524641037,XArbitraryZVertical,-0.1439005567440803,0.004623416717098904,0.01347493497348208,-0.9894896057635283,-0.005271544214338064,-0.2849008142948151,-0.95854252576828,0,0,0,-1,309140.3202222917,unknown,2,2015-05-14 21:33:13.146,null,0,0,0,0,null,0,0.2866364,99.75592,192.168.152.8,100.96.38.157,5,0
2015-05-14 21:33:19.989,78,1431628399.735022,59.93364945301327,30.35731146237405,21.26199,-1,-1,10,65,-9999,1431628399.981084,-10.29257202148438,-3.161308288574219,-44.02569580078125,56.37440490722656,45.97927856445312,20,309147.177955375,-0.0068359375,-0.287200927734375,-0.9864349365234375,309147.168909375,-0.03756814823331178,0.1081634887252412,0.09089608484938547,309147.158907375,-0.02440994915211033,-0.00450220463218177,0.2882521073649859,-0.03495083004236221,0.07806604355573654,0.09133359044790268,-0.001451383111998439,-0.01003464125096798,0.01599874347448349,XArbitraryZVertical,-0.1435893492734643,0.003980517886831913,0.01240139663693698,-0.9895516457537865,-0.004316438920795918,-0.2842768728733063,-0.9587324857711792,0,0,0,-1,309140.3202222917,unknown,2,2015-05-14 21:33:13.146,null,0,0,0,0,null,0,0.2866364,99.75592,192.168.152.8,100.96.38.157,5,0
2015-05-14 21:33:19.999,79,1431628399.735022,59.93364945301327,30.35731146237405,21.26199,-1,-1,10,65,-9999,1431628399.981084,-10.29257202148438,-3.161308288574219,-44.02569580078125,56.37440490722656,45.97927856445312,20,309147.187839375,-0.0059967041015625,-0.2726898193359375,-1.00537109375,309147.178886375,-0.02275777677916312,0.08910697322907024,0.1123009757947883,309147.158907375,-0.02440994915211033,-0.00450220463218177,0.2882521073649859,-0.03495083004236221,0.07806604355573654,0.09133359044790268,-0.001451383111998439,-0.01003464125096798,0.01599874347448349,XArbitraryZVertical,-0.1435893492734643,0.003980517886831913,0.01240139663693698,-0.9895516457537865,-0.004316438920795918,-0.2842768728733063,-0.9587324857711792,0,0,0,-1,309140.3202222917,unknown,2,2015-05-14 21:33:13.146,null,0,0,0,0,null,0,0.2866364,99.75592,192.168.152.8,100.96.38.157,5,0
2015-05-14 21:33:20.009,80,1431628399.735022,59.93364945301327,30.35731146237405,21.26199,-1,-1,10,65,-9999,1431628400.000351,-10.4622802734375,-2.788665771484375,-43.92715454101562,56.34591674804688,45.95079040527344,20,309147.197732375,-0.006866455078125,-0.2685394287109375,-0.9979400634765625,309147.188874375,-0.02563612128532076,0.006229400105804346,0.1128751533258094,309147.168909375,-0.02331900848594129,-0.003973577429802481,0.2882634916830889,-0.009566870518028736,0.09305570274591446,0.1087773516774178,-0.003239946905523539,-0.01144279446452856,-0.004678003955632448,XArbitraryZVertical,-0.1436002621030697,0.003640703780758157,0.01182367181170478,-0.9895584423291015,-0.003809613641351461,-0.2842878103256226,-0.9587314128875732,0,0,0,-1,309140.3202222917,unknown,2,2015-05-14 21:33:13.146,null,0,0,0,0,null,0,0.2866364,99.75592,192.168.152.8,100.96.38.157,5,0
2015-05-14 21:33:20.019,81,1431628399.735022,59.93364945301327,30.35731146237405,21.26199,-1,-1,10,65,-9999,1431628400.000351,-10.4622802734375,-2.788665771484375,-43.92715454101562,56.34591674804688,45.95079040527344,20,309147.207611375,-0.00860595703125,-0.271728515625,-0.9698486328125,309147.188874375,-0.02563612128532076,0.006229400105804346,0.1128751533258094,309147.178886375,-0.02200262873717657,-0.003568887055864067,0.2881959430506516,0.005242997314780951,0.07399894297122955,0.1301823258399963,-0.003414245089516044,-0.002977893454954028,-0.02768285199999809,XArbitraryZVertical,-0.1435714627930126,0.00334559372288631,0.01114328814312662,-0.9895715584046831,-0.003421692410483956,-0.2842230200767517,-0.9587520956993103,0,0,0,-1,309140.3202222917,unknown,2,2015-05-14 21:33:13.146,null,0,0,0,0,null,0,0.2866364,99.75592,192.168.152.8,100.96.38.157,5,0
2015-05-14 21:33:20.029,82,1431628399.735022,59.93364945301327,30.35731146237405,21.26199,-1,-1,10,65,-9999,1431628400.020098,-10.29257202148438,-2.619277954101562,-43.96002197265625,55.59653854370117,45.20141220092773,20,309147.217497375,-0.0079345703125,-0.29296875,-0.9550628662109375,309147.198875375,-0.04234585922891394,-0.05333912189265202,0.09954976049548894,309147.188874375,-0.02062167657009285,-0.003863873108513872,0.2878519190808068,0.002362451981753111,-0.008878826163709164,0.1307565718889236,-0.0022918158210814,0.01120336260646582,-0.04652233794331551,XArbitraryZVertical,-0.1434019718068008,0.00339070873619218,0.01048111173086421,-0.9896032153712271,-0.0037048882804811,-0.2838931679725647,-0.958848774433136,0,0,0,-1,309140.3202222917,unknown,2,2015-05-14 21:33:13.146,null,0,0,0,0,null,0,0.2866364,99.75592,192.168.152.8,100.96.38.157,5,0
2015-05-14 21:33:20.039,83,1431628399.735022,59.93364945301327,30.35731146237405,21.26199,-1,-1,10,65,-9999,1431628400.020098,-10.29257202148438,-2.619277954101562,-43.96002197265625,55.59653854370117,45.20141220092773,20,309147.227384375,-0.00592041015625,-0.3134613037109375,-0.9484405517578125,309147.218840375,-0.06485755992335374,0.01879818887043331,0.08048818499324679,309147.198875375,-0.01934094461572295,-0.004850146257361753,0.2873295718245404,-0.01434963569045067,-0.06844756752252579,0.1174312606453896,-0.002215163316577673,0.01485285814851522,-0.03894726932048798,XArbitraryZVertical,-0.1431407739978967,0.003784481829895534,0.009917853132888999,-0.9896454075606045,-0.004651291761547327,-0.2833922803401947,-0.9589927792549133,0,0,0,-1,309140.3202222917,unknown,2,2015-05-14 21:33:13.146,null,0,0,0,0,null,0,0.2866364,99.75592,192.168.152.8,100.96.38.157,5,0
2015-05-14 21:33:20.059,84,1431628399.735022,59.93364945301327,30.35731146237405,21.26199,-1,-1,10,65,-9999,1431628400.040598,-10.22467803955078,-2.416015625,-43.82864379882812,55.08977127075195,44.69464492797852,20,309147.237269375,-0.005645751953125,-0.323516845703125,-0.9525299072265625,309147.228817375,-0.05137770374980866,0.05285202972927653,0.1075096826776268,309147.218840375,-0.01724341551626437,-0.006175351034800712,0.2868759656503571,-0.03686042875051498,0.003689627861604095,0.09836965799331665,-0.002011627890169621,-0.01001150254160166,0.004051368217915297,XArbitraryZVertical,-0.142914287330439,0.004288270799293595,0.008974375561184765,-0.9896850902148976,-0.005922942422330379,-0.2829572558403015,-0.9591142535209656,0,0,0,-1,309140.3202222917,unknown,2,2015-05-14 21:33:13.146,null,0,0,0,0,null,0,0.2866364,99.75592,192.168.152.8,100.96.38.157,5,0
2015-05-14 21:33:20.060,85,1431628399.735022,59.93364945301327,30.35731146237405,21.26199,-1,-1,10,65,-9999,1431628400.040598,-10.22467803955078,-2.416015625,-43.82864379882812,55.08977127075195,44.69464492797852,20,309147.247151375,-0.00634765625,-0.3127288818359375,-0.9497528076171875,309147.238818375,-0.02507898798527619,0.03490711767210461,0.1546633466224608,309147.218840375,-0.01724341551626437,-0.006175351034800712,0.2868759656503571,-0.03686042875051498,0.003689627861604095,0.09836965799331665,-0.002011627890169621,-0.01001150254160166,0.004051368217915297,XArbitraryZVertical,-0.142914287330439,0.004288270799293595,0.008974375561184765,-0.9896850902148976,-0.005922942422330379,-0.2829572558403015,-0.9591142535209656,0,0,0,-1,309140.3202222917,unknown,2,2015-05-14 21:33:13.146,null,0,0,0,0,null,0,0.2866364,99.75592,192.168.152.8,100.96.38.157,5,0
2015-05-14 21:33:20.069,86,1431628399.735022,59.93364945301327,30.35731146237405,21.26199,-1,-1,10,65,-9999,1431628400.059408,-10.42833709716797,-2.212745666503906,-43.76290893554688,54.9362907409668,44.54116439819336,20,309147.257041375,-0.006866455078125,-0.2827606201171875,-0.9388580322265625,309147.248806375,0.001402953262253743,-0.008531702868177848,0.1931393664713806,309147.228817375,-0.01602383185531591,-0.006208097647343967,0.2871300799755708,-0.02337757125496864,0.03774355351924896,0.1253910660743713,3.349337930558249e-05,-0.03026033565402031,0.01060155499726534,XArbitraryZVertical,-0.1430424856257679,0.004218277638068635,0.008373456815283837,-0.9896721369528048,-0.005953903310000896,-0.2832009792327881,-0.9590421319007874,0,0,0,-1,309140.3202222917,unknown,2,2015-05-14 21:33:13.146,null,0,0,0,0,null,0,0.2866364,99.75592,192.168.152.8,100.96.38.157,5,0
2015-05-14 21:33:20.078,87,1431628399.735022,59.93364945301327,30.35731146237405,21.26199,-1,-1,10,65,-9999,1431628400.059408,-10.42833709716797,-2.212745666503906,-43.76290893554688,54.9362907409668,44.54116439819336,20,309147.266927375,-0.0103912353515625,-0.2557373046875,-0.926116943359375,309147.248806375,0.001402953262253743,-0.008531702868177848,0.1931393664713806,309147.238818375,-0.01435668342955914,-0.00639882792439841,0.2877718627188292,0.002924880245700479,0.0197987724095583,0.1725446134805679,0.0004899055929854512,-0.03970042616128922,0.006329099182039499,XArbitraryZVertical,-0.1433628056540607,0.004195553133397191,0.007562816518681557,-0.9896324100873032,-0.006135657429695129,-0.2838164269924164,-0.9588590264320374,0,0,0,-1,309140.3202222917,unknown,2,2015-05-14 21:33:13.146,null,0,0,0,0,null,0,0.2866364,99.75592,192.168.152.8,100.96.38.157,5,0
2015-05-14 21:33:20.088,88,1431628399.735022,59.93364945301327,30.35731146237405,21.26199,-1,-1,10,65,-9999,1431628400.07943,-10.39439392089844,-2.111122131347656,-43.7957763671875,54.92942810058594,44.5343017578125,20,309147.276815375,-0.0180206298828125,-0.2509613037109375,-0.9229736328125,309147.258792375,0.00895461284928243,-0.03186791823610618,0.194161487697753,309147.248806375,-0.01224017185420638,-0.007130350260684025,0.2885167246446373,0.0294096115976572,-0.02363995648920536,0.2110205441713333,0.0004879170737694949,-0.02819831110537052,0.008889789693057537,XArbitraryZVertical,-0.1437333369575633,0.004407872881120357,0.006568952710324144,-0.9895848358599659,-0.006835573352873325,-0.2845305800437927,-0.9586426019668579,0,0,0,-1,309140.3202222917,unknown,2,2015-05-14 21:33:13.146,null,0,0,0,0,null,0,0.2866364,99.75592,192.168.152.8,100.96.38.157,5,0
2015-05-14 21:33:20.098,89,1431628399.735022,59.93364945301327,30.35731146237405,21.26199,-1,-1,10,65,-9999,1431628400.07943,-10.39439392089844,-2.111122131347656,-43.7957763671875,54.92942810058594,44.5343017578125,20,309147.286701375,-0.022247314453125,-0.2571258544921875,-0.927520751953125,309147.278782375,-0.04207421679772586,0.02632854316874136,0.1501562127936107,309147.258792375,-0.01001823204594855,-0.008189891574517648,0.2889345479128307,0.03696157410740852,-0.04697610810399055,0.2120426297187805,0.0009838613914325833,0.002170479856431484,0.01965782046318054,XArbitraryZVertical,-0.143941962268431,0.00477335520746329,0.005546393418625378,-0.9895590755980269,-0.007850316353142262,-0.284931093454361,-0.9585158824920654,0,0,0,-1,309140.3202222917,unknown,2,2015-05-14 21:33:13.146,null,0,0,0,0,null,0,0.2866364,99.75592,192.168.152.8,100.96.38.157,5,0
2015-05-14 21:33:20.108,90,1431628399.735022,59.93364945301327,30.35731146237405,21.26199,-1,-1,10,65,-9999,1431628400.099207,-10.19074249267578,-2.178878784179688,-43.92721557617188,54.90970993041992,44.51458358764648,20,309147.296585375,-0.0189666748046875,-0.26763916015625,-0.9323272705078125,309147.288760375,-0.08903000787356695,0.05479160995118124,0.1391158121785782,309147.278782375,-0.00619501708385163,-0.009626464229445844,0.2891154138935603,-0.01406736671924591,0.01122041512280703,0.1680372804403305,-0.008793840184807777,0.03414316102862358,0.03547840565443039,XArbitraryZVertical,-0.1440376508296136,0.0052091924813224,0.003758523256895799,-0.9895513594352265,-0.009226789698004723,-0.2851044535636902,-0.958452045917511,0,0,0,-1,309140.3202222917,unknown,2,2015-05-14 21:33:13.146,null,0,0,0,0,null,0,0.2866364,99.75592,192.168.152.8,100.96.38.157,5,0
2015-05-14 21:33:20.118,91,1431628399.735022,59.93364945301327,30.35731146237405,21.26199,-1,-1,10,65,-9999,1431628400.099207,-10.19074249267578,-2.178878784179688,-43.92721557617188,54.90970993041992,44.51458358764648,20,309147.306473375,-0.010894775390625,-0.282470703125,-0.9464874267578125,309147.298751375,-0.1125952550952421,0.09080100999846964,0.1337157204362245,309147.278782375,-0.00619501708385163,-0.009626464229445844,0.2891154138935603,-0.01406736671924591,0.01122041512280703,0.1680372804403305,-0.008793840184807777,0.03414316102862358,0.03547840565443039,XArbitraryZVertical,-0.1440376508296136,0.0052091924813224,0.003758523256895799,-0.9895513594352265,-0.009226789698004723,-0.2851044535636902,-0.958452045917511,0,0,0,-1,309140.3202222917,unknown,2,2015-05-14 21:33:13.146,null,0,0,0,0,null,0,0.2866364,99.75592,192.168.152.8,100.96.38.157,5,0
2015-05-14 21:33:20.140,92,1431628399.735022,59.93364945301327,30.35731146237405,21.26199,-1,-1,10,65,-9999,1431628400.118774,-10.49622344970703,-2.077239990234375,-43.69723510742188,54.89707946777344,44.501953125,20,309147.316360375,-0.008026123046875,-0.2963104248046875,-0.9604339599609375,309147.308739375,-0.1094159733859055,0.09612786481084613,0.1337809678829315,309147.288760375,-0.00453559088525559,-0.009776605550237405,0.2886023580128908,-0.06102321296930313,0.0396835133433342,0.1569968461990356,-0.01287519279867411,0.02748681046068668,0.03107603266835213,XArbitraryZVertical,-0.1437878487186203,0.005163572038383323,0.002947134453574466,-0.9895906762309287,-0.009372121654450893,-0.2846126556396484,-0.9585967659950256,0,0,0,-1,309140.3202222917,unknown,2,2015-05-14 21:33:13.146,null,0,0,0,0,null,0,0.2866364,99.75592,192.168.152.8,100.96.38.157,5,0
2015-05-14 21:33:20.141,93,1431628399.735022,59.93364945301327,30.35731146237405,21.26199,-1,-1,10,65,-9999,1431628400.13991,-10.49622344970703,-2.009490966796875,-44.0257568359375,54.87671661376953,44.48159027099609,20,309147.326246375,-0.006805419921875,-0.3046417236328125,-0.976654052734375,309147.318728375,-0.08180325393952793,0.07713206938752895,0.1553296695271986,309147.298751375,-0.002899513296342139,-0.009739318983554861,0.2876304356727465,-0.08458933979272842,0.07569199055433273,0.1515970975160599,-0.009627606719732285,0.01604164391756058,0.02654601819813251,XArbitraryZVertical,-0.1433111427911226,0.005027139536366402,0.002132688438131451,-0.9896626171883067,-0.009339068084955215,-0.28368079662323,-0.9588732719421387,0,0,0,-1,309140.3202222917,unknown,2,2015-05-14 21:33:13.146,null,0,0,0,0,null,0,0.2866364,99.75592,192.168.152.8,100.96.38.157,5,0
2015-05-14 21:33:20.147,94,1431628399.735022,59.93364945301327,30.35731146237405,21.26199,-1,-1,10,65,-9999,1431628400.13991,-10.49622344970703,-2.009490966796875,-44.0257568359375,54.87671661376953,44.48159027099609,20,309147.336137375,-0.006256103515625,-0.2764892578125,-0.9942474365234375,309147.318728375,-0.08180325393952793,0.07713206938752895,0.1553296695271986,309147.308739375,-0.001328670324986689,-0.009359277375435539,0.2867761894656771,-0.08141010999679565,0.08101888000965118,0.1516623198986053,-0.001917854882776737,0.0003908446815330535,0.01263131480664015,XArbitraryZVertical,-0.1428925797893972,0.004726526725180728,0.001326215118744332,-0.9897260286259549,-0.008976920507848263,-0.2828615605831146,-0.9591187238693237,0,0,0,-1,309140.3202222917,unknown,2,2015-05-14 21:33:13.146,null,0,0,0,0,null,0,0.2866364,99.75592,192.168.152.8,100.96.38.157,5,0
2015-05-14 21:33:20.159,95,1431628399.735022,59.93364945301327,30.35731146237405,21.26199,-1,-1,10,65,-9999,1431628400.13991,-10.49622344970703,-2.009490966796875,-44.0257568359375,54.87671661376953,44.48159027099609,20,309147.346020375,-0.0234527587890625,-0.2843475341796875,-0.9345855712890625,309147.328718375,-0.04887593022178822,0.04541169027581315,0.1843378853847777,309147.308739375,-0.001328670324986689,-0.009359277375435539,0.2867761894656771,-0.08141010999679565,0.08101888000965118,0.1516623198986053,-0.001917854882776737,0.0003908446815330535,0.01263131480664015,XArbitraryZVertical,-0.1428925797893972,0.004726526725180728,0.001326215118744332,-0.9897260286259549,-0.008976920507848263,-0.2828615605831146,-0.9591187238693237,0,0,0,-1,309140.3202222917,unknown,2,2015-05-14 21:33:13.146,null,0,0,0,0,null,0,0.2866364,99.75592,192.168.152.8,100.96.38.157,5,0
2015-05-14 21:33:20.167,96,1431628399.735022,59.93364945301327,30.35731146237405,21.26199,-1,-1,10,65,-9999,1431628400.160117,-10.53015899658203,-1.840110778808594,-43.7301025390625,54.85427856445312,44.45915222167969,20,309147.355906375,-0.0426025390625,-0.288299560546875,-0.919952392578125,309147.348697375,0.02063577002258798,-0.003127616384189057,0.1880487340476941,309147.338706375,0.004529433873066778,-0.01022689586210188,0.2856030377211478,0.01364174950867891,-0.05770828947424889,0.1999819874763489,0.003556349547579885,0.005246854387223721,-0.03480568155646324,XArbitraryZVertical,-0.1423259092190954,0.00473906153037736,-0.001513909708035166,-0.9898073473854213,-0.009812452830374241,-0.2817361056804657,-0.9594417810440063,0,0,0,-1,309140.3202222917,unknown,2,2015-05-14 21:33:13.146,null,0,0,0,0,null,0,0.2866364,99.75592,192.168.152.8,100.96.38.157,5,0
2015-05-14 21:33:20.177,97,1431628399.735022,59.93364945301327,30.35731146237405,21.26199,-1,-1,10,65,-9999,1431628400.160117,-10.53015899658203,-1.840110778808594,-43.7301025390625,54.85427856445312,44.45915222167969,20,309147.365777375,-0.0231170654296875,-0.258392333984375,-0.9530487060546875,309147.358684375,0.05633597706731819,0.08946223891848681,0.2103084997030124,309147.338706375,0.004529433873066778,-0.01022689586210188,0.2856030377211478,0.01364174950867891,-0.05770828947424889,0.1999819874763489,0.003556349547579885,0.005246854387223721,-0.03480568155646324,XArbitraryZVertical,-0.1423259092190954,0.00473906153037736,-0.001513909708035166,-0.9898073473854213,-0.009812452830374241,-0.2817361056804657,-0.9594417810440063,0,0,0,-1,309140.3202222917,unknown,2,2015-05-14 21:33:13.146,null,0,0,0,0,null,0,0.2866364,99.75592,192.168.152.8,100.96.38.157,5,0
2015-05-14 21:33:20.188,98,1431628399.735022,59.93364945301327,30.35731146237405,21.26199,-1,-1,10,65,-9999,1431628400.178444,-10.56410217285156,-1.602973937988281,-43.5001220703125,54.01411819458008,43.61899185180664,20,309147.375661375,-0.0117034912109375,-0.218719482421875,-1.029190063476562,309147.368672375,0.06938067271874432,0.06190571217110991,0.1964273051531924,309147.348697375,0.00663075240006789,-0.01122994131305638,0.2859778712217799,0.04863988980650902,-0.01823621802031994,0.2059298604726791,-0.01267913356423378,-0.002251792000606656,0.02474019303917885,XArbitraryZVertical,-0.1425175748471634,0.005085167241387991,-0.002481346397606454,-0.9897760983444006,-0.01077362522482872,-0.282095730304718,-0.9593257904052734,0,0,0,-1,309140.3202222917,unknown,2,2015-05-14 21:33:13.146,null,0,0,0,0,null,0,0.2866364,99.75592,192.168.152.8,100.96.38.157,5,0
2015-05-14 21:33:20.197,99,1431628399.735022,59.93364945301327,30.35731146237405,21.26199,-1,-1,10,65,-9999,1431628400.178444,-10.56410217285156,-1.602973937988281,-43.5001220703125,54.01411819458008,43.61899185180664,20,309147.385562375,-0.086578369140625,-0.27667236328125,-0.9122467041015625,309147.378661375,0.004432565318327884,-0.1158051631571146,0.1434836626824171,309147.368672375,0.01127412493772802,-0.01132301690478033,0.2876466010017949,0.09738467633724213,0.04679717123508453,0.2143083512783051,-0.01225949637591839,0.02530397102236748,0.005804004147648811,XArbitraryZVertical,-0.1433549890725215,0.004795004267438552,-0.004767306889297235,-0.9896482343879136,-0.01085756905376911,-0.2836962938308716,-0.9588527083396912,0,0,0,-1,309140.3202222917,unknown,2,2015-05-14 21:33:13.146,null,0,0,0,0,null,0,0.2866364,99.75592,192.168.152.8,100.96.38.157,5,0
2015-05-14 21:33:20.220,100,1431628399.735022,59.93364945301327,30.35731146237405,21.26199,-1,-1,10,65,-9999,1431628400.218021,-10.80169677734375,-1.094818115234375,-43.59872436523438,54.14815902709961,43.75303268432617,20,309147.395440375,-0.0380859375,-0.2690582275390625,-0.9195709228515625,309147.388650375,0.002134789929807517,0.03714976562606033,0.2094102154673287,309147.368672375,0.01127412493772802,-0.01132301690478033,0.2876466010017949,0.09738467633724213,0.04679717123508453,0.2143083512783051,-0.01225949637591839,0.02530397102236748,0.005804004147648811,XArbitraryZVertical,-0.1433549890725215,0.004795004267438552,-0.004767306889297235,-0.9896482343879136,-0.01085756905376911,-0.2836962938308716,-0.9588527083396912,0,0,0,-1,309140.3202222917,unknown,2,2015-05-14 21:33:13.146,null,0,0,0,0,null,0,0.2866364,99.75592,192.168.152.8,100.96.38.157,5,0
2015-05-14 21:33:20.221,101,1431628399.735022,59.93364945301327,30.35731146237405,21.26199,-1,-1,10,65,-9999,1431628400.218021,-10.80169677734375,-1.094818115234375,-43.59872436523438,54.14815902709961,43.75303268432617,20,309147.405334375,-0.0281982421875,-0.222900390625,-0.926605224609375,309147.398638375,0.01901603544760179,0.1094721660849062,0.1993290854769427,309147.378661375,0.01305619230715567,-0.01279573018897408,0.2866268107773729,0.03242814913392067,-0.1309139430522919,0.161364883184433,0.0005698765744455159,0.06399878114461899,-0.07006559520959854,XArbitraryZVertical,-0.1428587005188894,0.005399758600629515,-0.005547254589825764,-0.9897128180738206,-0.01227336749434471,-0.2827182710170746,-0.9591244459152222,0,0,0,-1,309140.3202222917,unknown,2,2015-05-14 21:33:13.146,null,0,0,0,0,null,0,0.2866364,99.75592,192.168.152.8,100.96.38.157,5,0
2015-05-14 21:33:20.227,102,1431628399.735022,59.93364945301327,30.35731146237405,21.26199,-1,-1,10,65,-9999,1431628400.218021,-10.80169677734375,-1.094818115234375,-43.59872436523438,54.14815902709961,43.75303268432617,20,309147.415218375,-0.0411529541015625,-0.235076904296875,-0.930206298828125,309147.398638375,0.01901603544760179,0.1094721660849062,0.1993290854769427,309147.388650375,0.01521226642610979,-0.01365768912064712,0.2868666834428744,0.03013031557202339,0.02204101718962193,0.2272913902997971,-0.07347920536994934,0.006275981664657593,0.04679899290204048,XArbitraryZVertical,-0.1429859746107363,0.005671271213084583,-0.00655168507007077,-0.989686780335166,-0.01309916283935308,-0.2829483449459076,-0.9590457081794739,0,0,0,-1,309140.3202222917,unknown,2,2015-05-14 21:33:13.146,null,0,0,0,0,null,0,0.2866364,99.75592,192.168.152.8,100.96.38.157,5,0
2015-05-14 21:33:20.237,103,1431628399.735022,59.93364945301327,30.35731146237405,21.26199,-1,-1,10,65,-9999,1431628400.218021,-10.80169677734375,-1.094818115234375,-43.59872436523438,54.14815902709961,43.75303268432617,20,309147.425110375,-0.0387115478515625,-0.256866455078125,-0.9488983154296875,309147.408629375,0.04964505114460311,0.1202582348158361,0.1154200700634891,309147.398638375,0.01759555430686214,-0.01350160741170176,0.2872565795457339,0.04701150581240654,0.09436344355344772,0.2172102183103561,-0.02513795532286167,0.01426405925303698,0.03936642035841942,XArbitraryZVertical,-0.1431849573570628,0.005421757851365085,-0.00774064585660088,-0.9896508247509214,-0.01294798217713833,-0.283322274684906,-0.9589373469352722,0,0,0,-1,309140.3202222917,unknown,2,2015-05-14 21:33:13.146,null,0,0,0,0,null,0,0.2866364,99.75592,192.168.152.8,100.96.38.157,5,0
2015-05-14 21:33:20.247,104,1431628399.735022,59.93364945301327,30.35731146237405,21.26199,-1,-1,10,65,-9999,1431628400.240054,-10.63198089599609,-1.060943603515625,-43.30303955078125,54.10604858398438,43.71092224121094,20,309147.434990375,-0.0338134765625,-0.2732086181640625,-0.96453857421875,309147.418617375,0.09583971078089956,0.1013601774045248,0.09021884298417832,309147.408629375,0.01921479598957699,-0.01290041676034513,0.2879295792784452,0.07764046639204025,0.105149544775486,0.133301168680191,-0.01582922972738743,0.06106725335121155,0.03214885294437408,XArbitraryZVertical,-0.1435197274686173,0.005004837471035035,-0.008582315573560859,-0.9895975865414269,-0.01236901339143515,-0.2839676439762115,-0.9587540626525879,0,0,0,-1,309140.3202222917,unknown,2,2015-05-14 21:33:13.146,null,0,0,0,0,null,0,0.2866364,99.75592,192.168.152.8,100.96.38.157,5,0
2015-05-14 21:33:20.256,105,1431628399.735022,59.93364945301327,30.35731146237405,21.26199,-1,-1,10,65,-9999,1431628400.240054,-10.63198089599609,-1.060943603515625,-43.30303955078125,54.10604858398438,43.71092224121094,20,309147.444874375,-0.0275726318359375,-0.277252197265625,-0.9608612060546875,309147.438595375,0.1455822336213996,0.0474026695067564,0.155578142456903,309147.428605375,0.02194137792288331,-0.01254385178442986,0.2897269609071917,0.1598157733678818,0.080037921667099,0.1415544152259827,-0.02669081464409828,0.02882412075996399,0.009348206222057343,XArbitraryZVertical,-0.1444139001226308,0.00462218063600615,-0.00995000842780999,-0.9894565469134177,-0.01202073320746422,-0.285690575838089,-0.9582465291023254,0,0,0,-1,309140.3202222917,unknown,2,2015-05-14 21:33:13.146,null,0,0,0,0,null,0,0.2866364,99.75592,192.168.152.8,100.96.38.157,5,0
2015-05-14 21:33:20.267,106,1431628399.735022,59.93364945301327,30.35731146237405,21.26199,-1,-1,10,65,-9999,1431628400.258296,-10.39437866210938,-1.027061462402344,-43.92721557617188,54.0365104675293,43.64138412475586,20,309147.454775375,-0.0363616943359375,-0.27410888671875,-0.9464569091796875,309147.448584375,0.1232713352731517,0.01648789662478957,0.1583579500027277,309147.428605375,0.02194137792288331,-0.01254385178442986,0.2897269609071917,0.1598157733678818,0.080037921667099,0.1415544152259827,-0.02669081464409828,0.02882412075996399,0.009348206222057343,XArbitraryZVertical,-0.1444139001226308,0.00462218063600615,-0.00995000842780999,-0.9894565469134177,-0.01202073320746422,-0.285690575838089,-0.9582465291023254,0,0,0,-1,309140.3202222917,unknown,2,2015-05-14 21:33:13.146,null,0,0,0,0,null,0,0.2866364,99.75592,192.168.152.8,100.96.38.157,5,0
2015-05-14 21:33:20.276,107,1431628399.735022,59.93364945301327,30.35731146237405,21.26199,-1,-1,10,65,-9999,1431628400.258296,-10.39437866210938,-1.027061462402344,-43.92721557617188,54.0365104675293,43.64138412475586,20,309147.464649375,-0.04119873046875,-0.2603607177734375,-0.93878173828125,309147.458572375,0.07202519168119299,0.04811746194333366,0.148354318000063,309147.438595375,0.02371136826059601,-0.01257999043609417,0.2914181584021445,0.1735730618238449,0.03229067102074623,0.173460379242897,-0.02176420949399471,0.01410226058214903,-0.006776978727430105,XArbitraryZVertical,-0.1452547352019737,0.004501562806280644,-0.01081634543772796,-0.9893249236247291,-0.01204926706850529,-0.2873108685016632,-0.9577615857124329,0,0,0,-1,309140.3202222917,unknown,2,2015-05-14 21:33:13.146,null,0,0,0,0,null,0,0.2866364,99.75592,192.168.152.8,100.96.38.157,5,0
2015-05-14 21:33:20.287,108,1431628399.735022,59.93364945301327,30.35731146237405,21.26199,-1,-1,10,65,-9999,1431628400.278199,-10.22467041015625,-1.128692626953125,-43.9600830078125,53.95516204833984,43.56003570556641,20,309147.474536375,-0.0391387939453125,-0.2399749755859375,-0.9442138671875,309147.468569375,0.003620833818071732,0.1168493886205347,0.1319612299100803,309147.458572375,0.02751297611589601,-0.0139010223202261,0.2938555228566402,0.1000146940350533,0.0330028235912323,0.1662374138832092,-0.02305697835981846,0.01553573459386826,0.01058487594127655,XArbitraryZVertical,-0.146476883945089,0.004861083659454789,-0.01259006294610347,-0.9891220261678558,-0.01330471597611904,-0.2896446287631989,-0.9570418000221252,0,0,0,-1,309140.3202222917,unknown,2,2015-05-14 21:33:13.146,null,0,0,0,0,null,0,0.2866364,99.75592,192.168.152.8,100.96.38.157,5,0
2015-05-14 21:33:20.300,109,1431628399.735022,59.93364945301327,30.35731146237405,21.26199,-1,-1,10,65,-9999,1431628400.298052,-9.919189453125,-1.027061462402344,-44.12432861328125,53.83319473266602,43.43806838989258,20,309147.484412375,-0.03753662109375,-0.2300872802734375,-0.94317626953125,309147.478549375,-0.05164188932994453,0.1590897866702815,0.0910215197367282,309147.458572375,0.02751297611589601,-0.0139010223202261,0.2938555228566402,0.1000146940350533,0.0330028235912323,0.1662374138832092,-0.02305697835981846,0.01553573459386826,0.01058487594127655,XArbitraryZVertical,-0.146476883945089,0.004861083659454789,-0.01259006294610347,-0.9891220261678558,-0.01330471597611904,-0.2896446287631989,-0.9570418000221252,0,0,0,-1,309140.3202222917,unknown,2,2015-05-14 21:33:13.146,null,0,0,0,0,null,0,0.2866364,99.75592,192.168.152.8,100.96.38.157,5,0
2015-05-14 21:33:20.306,110,1431628399.735022,59.93364945301327,30.35731146237405,21.26199,-1,-1,10,65,-9999,1431628400.298052,-9.919189453125,-1.027061462402344,-44.12432861328125,53.83319473266602,43.43806838989258,20,309147.494310375,-0.0457916259765625,-0.2346343994140625,-0.9472503662109375,309147.488537375,-0.0810831351807705,0.1600218930518092,0.04480528849560211,309147.468569375,0.02913474374329183,-0.01352933096291095,0.2943206660766897,0.03161027655005455,0.1017347797751427,0.1498442888259888,-0.02825156413018703,0.0297290775924921,0.0181301087141037,XArbitraryZVertical,-0.1467083149439082,0.004554902481104578,-0.01341729187701562,-0.9890783080567445,-0.01294716726988554,-0.2900897860527039,-0.9569118618965149,0,0,0,-1,309140.3202222917,unknown,2,2015-05-14 21:33:13.146,null,0,0,0,0,null,0,0.2866364,99.75592,192.168.152.8,100.96.38.157,5,0
2015-05-14 21:33:20.316,111,1431628399.735022,59.93364945301327,30.35731146237405,21.26199,-1,-1,10,65,-9999,1431628400.298052,-9.919189453125,-1.027061462402344,-44.12432861328125,53.83319473266602,43.43806838989258,20,309147.504197375,-0.04962158203125,-0.2443084716796875,-0.967926025390625,309147.488537375,-0.0810831351807705,0.1600218930518092,0.04480528849560211,309147.478549375,0.03038769222022975,-0.01252315154778094,0.2941904929149349,-0.02365250140428543,0.1439752131700516,0.1089045330882072,-0.0271539855748415,0.04999024048447609,0.01274827308952808,XArbitraryZVertical,-0.1466396854884949,0.003966439191657614,-0.01411127642479646,-0.9890813626176747,-0.011984808370471,-0.2899652123451233,-0.9569621682167053,0,0,0,-1,309140.3202222917,unknown,2,2015-05-14 21:33:13.146,null,0,0,0,0,null,0,0.2866364,99.75592,192.168.152.8,100.96.38.157,5,0
2015-05-14 21:33:20.327,112,1431628399.735022,59.93364945301327,30.35731146237405,21.26199,-1,-1,10,65,-9999,1431628400.316929,-9.749473571777344,-1.060935974121094,-44.35427856445312,53.69534683227539,43.30022048950195,20,309147.514072375,-0.0302734375,-0.2387237548828125,-0.9818267822265625,309147.498527375,-0.1002307307862222,0.1535576021378599,0.04135303277453239,309147.478549375,0.03038769222022975,-0.01252315154778094,0.2941904929149349,-0.02365250140428543,0.1439752131700516,0.1089045330882072,-0.0271539855748415,0.04999024048447609,0.01274827308952808,XArbitraryZVertical,-0.1466396854884949,0.003966439191657614,-0.01411127642479646,-0.9890813626176747,-0.011984808370471,-0.2899652123451233,-0.9569621682167053,0,0,0,-1,309140.3202222917,unknown,2,2015-05-14 21:33:13.146,null,0,0,0,0,null,0,0.2866364,99.75592,192.168.152.8,100.96.38.157,5,0
2015-05-14 21:33:20.335,113,1431628399.735022,59.93364945301327,30.35731146237405,21.26199,-1,-1,10,65,-9999,1431628400.316929,-9.749473571777344,-1.060935974121094,-44.35427856445312,53.69534683227539,43.30022048950195,20,309147.523969375,-0.0306549072265625,-0.24029541015625,-0.9960479736328125,309147.518503375,-0.1578215893591857,0.065101771795314,0.07543483682482145,309147.498527375,0.03196681795186047,-0.01087009076835874,0.2919609662241858,-0.07224731147289276,0.1384386718273163,0.05923759564757347,-0.0353817492723465,0.05319635942578316,0.01037434581667185,XArbitraryZVertical,-0.1455277680267117,0.003051669450856646,-0.01502200801254553,-0.9892354094562105,-0.01040987763553858,-0.2878307700157166,-0.9576247334480286,0,0,0,-1,309140.3202222917,unknown,2,2015-05-14 21:33:13.146,null,0,0,0,0,null,0,0.2866364,99.75592,192.168.152.8,100.96.38.157,5,0
2015-05-14 21:33:20.345,114,1431628399.735022,59.93364945301327,30.35731146237405,21.26199,-1,-1,10,65,-9999,1431628400.336742,-9.579765319824219,-1.230339050292969,-44.5185546875,53.5557861328125,43.16065979003906,20,309147.533864375,-0.03082275390625,-0.2358856201171875,-0.986724853515625,309147.528493375,-0.1911462567115653,-0.02215936448222232,0.02548298952264121,309147.518503375,0.03391856404698004,-0.009500804682956446,0.2898348333148352,-0.1298382729291916,0.04998290166258812,0.09331932663917542,-0.02116903848946095,0.04707019776105881,-0.02357893995940685,XArbitraryZVertical,-0.1444680311455841,0.0022509572231843,-0.0160946105088323,-0.9893760077347065,-0.009104399941861629,-0.2857939600944519,-0.9582478404045105,0,0,0,-1,309140.3202222917,unknown,2,2015-05-14 21:33:13.146,null,0,0,0,0,null,0,0.2866364,99.75592,192.168.152.8,100.96.38.157,5,0
2015-05-14 21:33:20.357,115,1431628399.735022,59.93364945301327,30.35731146237405,21.26199,-1,-1,10,65,-9999,1431628400.336742,-9.579765319824219,-1.230339050292969,-44.5185546875,53.5557861328125,43.16065979003906,20,309147.543739375,-0.02886962890625,-0.23291015625,-0.95880126953125,309147.538466375,-0.2096845210596068,-0.03923209128239329,-0.03778706007491629,309147.518503375,0.03391856404698004,-0.009500804682956446,0.2898348333148352,-0.1298382729291916,0.04998290166258812,0.09331932663917542,-0.02116903848946095,0.04707019776105881,-0.02357893995940685,XArbitraryZVertical,-0.1444680311455841,0.0022509572231843,-0.0160946105088323,-0.9893760077347065,-0.009104399941861629,-0.2857939600944519,-0.9582478404045105,0,0,0,-1,309140.3202222917,unknown,2,2015-05-14 21:33:13.146,null,0,0,0,0,null,0,0.2866364,99.75592,192.168.152.8,100.96.38.157,5,0
2015-05-14 21:33:20.365,116,1431628399.735022,59.93364945301327,30.35731146237405,21.26199,-1,-1,10,65,-9999,1431628400.357511,-9.545822143554688,-1.331962585449219,-44.22286987304688,53.43635940551758,43.04123306274414,20,309147.553627375,-0.03326416015625,-0.2425994873046875,-0.9316558837890625,309147.548454375,-0.1912778168694152,-0.003015763618405729,-0.08113639840257209,309147.528493375,0.03450163809719035,-0.009853332876195097,0.2882882296468905,-0.1631630063056946,-0.03727820515632629,0.04336744919419289,-0.02120835520327091,0.04401610419154167,-0.03736255690455437,XArbitraryZVertical,-0.1437064602958558,0.002396978766644845,-0.01636327539341285,-0.989482163043087,-0.009446552023291588,-0.2843115031719208,-0.9586853981018066,0,0,0,-1,309140.3202222917,unknown,2,2015-05-14 21:33:13.146,null,0,0,0,0,null,0,0.2866364,99.75592,192.168.152.8,100.96.38.157,5,0
2015-05-14 21:33:20.380,117,1431628399.735022,59.93364945301327,30.35731146237405,21.26199,-1,-1,10,65,-9999,1431628400.37629,-9.613700866699219,-1.196449279785156,-44.35427856445312,53.3121337890625,42.91700744628906,20,309147.563514375,-0.0363922119140625,-0.25128173828125,-0.913970947265625,309147.548454375,-0.1912778168694152,-0.003015763618405729,-0.08113639840257209,309147.538466375,0.03457542793803823,-0.01084488996161759,0.2853401598213149,-0.1817077398300171,-0.05435358360409737,-0.01990154944360256,-0.02041657082736492,0.04559825360774994,-0.02721532247960567,XArbitraryZVertical,-0.1422560172903525,0.002908601751323852,-0.01634008486634144,-0.9896907432158285,-0.01040618307888508,-0.2814838588237762,-0.959509551525116,0,0,0,-1,309140.3202222917,unknown,2,2015-05-14 21:33:13.146,null,0,0,0,0,null,0,0.2866364,99.75592,192.168.152.8,100.96.38.157,5,0
2015-05-14 21:33:20.386,118,1431628399.735022,59.93364945301327,30.35731146237405,21.26199,-1,-1,10,65,-9999,1431628400.37629,-9.613700866699219,-1.196449279785156,-44.35427856445312,53.3121337890625,42.91700744628906,20,309147.573400375,-0.0614471435546875,-0.322967529296875,-0.8214111328125,309147.558460375,-0.1336699140654751,0.04081773739542647,-0.09839022015686845,309147.538466375,0.03457542793803823,-0.01084488996161759,0.2853401598213149,-0.1817077398300171,-0.05435358360409737,-0.01990154944360256,-0.02041657082736492,0.04559825360774994,-0.02721532247960567,XArbitraryZVertical,-0.1422560172903525,0.002908601751323852,-0.01634008486634144,-0.9896907432158285,-0.01040618307888508,-0.2814838588237762,-0.959509551525116,0,0,0,-1,309140.3202222917,unknown,2,2015-05-14 21:33:13.146,null,0,0,0,0,null,0,0.2866364,99.75592,192.168.152.8,100.96.38.157,5,0
2015-05-14 21:33:20.395,119,1431628399.735022,59.93364945301327,30.35731146237405,21.26199,-1,-1,10,65,-9999,1431628400.37629,-9.613700866699219,-1.196449279785156,-44.35427856445312,53.3121337890625,42.91700744628906,20,309147.583290375,-0.0182037353515625,-0.3892822265625,-0.866546630859375,309147.578443375,0.2514189185022386,0.3984938539146275,0.1000179442151249,309147.558460375,0.03316500508476386,-0.01058280973104445,0.2824332675291913,-0.1056932434439659,0.02569630369544029,-0.08050478249788284,-0.02310082875192165,0.03609384596347809,0.02867048420011997,XArbitraryZVertical,-0.1408132871381062,0.00290417668548513,-0.01567180222585089,-0.9899078636611256,-0.01016333047300577,-0.2786933183670044,-0.9603263735771179,0,0,0,-1,309140.3202222917,unknown,2,2015-05-14 21:33:13.146,null,0,0,0,0,null,0,0.2866364,99.75592,192.168.152.8,100.96.38.157,5,0
2015-05-14 21:33:20.404,120,1431628399.735022,59.93364945301327,30.35731146237405,21.26199,-1,-1,10,65,-9999,1431628400.396983,-9.613700866699219,-1.331962585449219,-44.09152221679688,53.22094345092773,42.8258171081543,20,309147.593183375,0.079010009765625,-0.32794189453125,-1.068756103515625,309147.588427375,0.4576716901811693,0.3187106076619247,0.2118118541383621,309147.578443375,0.03292991169035902,-0.006921968348526249,0.2837800067229447,0.2793954908847809,0.3833724558353424,0.1179033294320107,-0.05480207875370979,-0.04298106953501701,0.1385698169469833,XArbitraryZVertical,-0.1414507707190207,0.001097469431253597,-0.01580929146278807,-0.9898184385670364,-0.006645063869655132,-0.2799864709377289,-0.9599809646606445,0,0,0,-1,309140.3202222917,unknown,2,2015-05-14 21:33:13.146,null,0,0,0,0,null,0,0.2866364,99.75592,192.168.152.8,100.96.38.157,5,0
2015-05-14 21:33:20.414,121,1431628399.735022,59.93364945301327,30.35731146237405,21.26199,-1,-1,10,65,-9999,1431628400.396983,-9.613700866699219,-1.331962585449219,-44.09152221679688,53.22094345092773,42.8258171081543,20,309147.603060375,0.0510406494140625,-0.3730010986328125,-1.035293579101562,309147.588427375,0.4576716901811693,0.3187106076619247,0.2118118541383621,309147.578443375,0.03292991169035902,-0.006921968348526249,0.2837800067229447,0.2793954908847809,0.3833724558353424,0.1179033294320107,-0.05480207875370979,-0.04298106953501701,0.1385698169469833,XArbitraryZVertical,-0.1414507707190207,0.001097469431253597,-0.01580929146278807,-0.9898184385670364,-0.006645063869655132,-0.2799864709377289,-0.9599809646606445,0,0,0,-1,309140.3202222917,unknown,2,2015-05-14 21:33:13.146,null,0,0,0,0,null,0,0.2866364,99.75592,192.168.152.8,100.96.38.157,5,0
2015-05-14 21:33:20.424,122,1431628399.735022,59.93364945301327,30.35731146237405,21.26199,-1,-1,10,65,-9999,1431628400.416717,-9.749473571777344,-1.602981567382812,-44.22293090820312,51.93822479248047,41.54309844970703,20,309147.612950375,0.0283050537109375,-0.369842529296875,-1.00787353515625,309147.608390375,0.1422426296144402,-0.1172954681031229,0.2389372151052552,309147.588427375,0.0353466666603743,-0.004131821003224605,0.2912872984859501,0.4856646358966827,0.303588330745697,0.2296967357397079,-0.01424597855657339,-0.1020966917276382,0.09132017195224762,XArbitraryZVertical,-0.1451424431280725,-0.0005210619874534127,-0.01718549573096667,-0.9892613701311193,-0.003957756794989109,-0.2871855199337006,-0.9578667879104614,0,0,0,-1,309140.3202222917,unknown,2,2015-05-14 21:33:13.146,null,0,0,0,0,null,0,0.2866364,99.75592,192.168.152.8,100.96.38.157,5,0
2015-05-14 21:33:20.434,123,1431628399.735022,59.93364945301327,30.35731146237405,21.26199,-1,-1,10,65,-9999,1431628400.416717,-9.749473571777344,-1.602981567382812,-44.22293090820312,51.93822479248047,41.54309844970703,20,309147.622836375,0.001434326171875,-0.3633880615234375,-0.9423980712890625,309147.608390375,0.1422426296144402,-0.1172954681031229,0.2389372151052552,309147.598402375,0.03734492535611026,-0.004588523562219424,0.295324807277345,0.3722528219223022,-0.04964293166995049,0.184839203953743,0.08339986950159073,-0.03689128160476685,-0.1120585203170776,XArbitraryZVertical,-0.1471427144367518,-0.0004781475908236844,-0.01813065425147458,-0.988948973577241,-0.004389860201627016,-0.2910506129264832,-0.9566975831985474,0,0,0,-1,309140.3202222917,unknown,2,2015-05-14 21:33:13.146,null,0,0,0,0,null,0,0.2866364,99.75592,192.168.152.8,100.96.38.157,5,0
2015-05-14 21:33:20.459,124,1431628399.735022,59.93364945301327,30.35731146237405,21.26199,-1,-1,10,65,-9999,1431628400.45675,-9.545814514160156,-1.670730590820312,-44.09152221679688,50.29977416992188,39.90464782714844,20,309147.632723375,-0.0051116943359375,-0.3553619384765625,-0.931915283203125,309147.618394375,-0.06665998734911936,-0.07686948170404713,0.3104606672370773,309147.598402375,0.03734492535611026,-0.004588523562219424,0.295324807277345,0.3722528219223022,-0.04964293166995049,0.184839203953743,0.08339986950159073,-0.03689128160476685,-0.1120585203170776,XArbitraryZVertical,-0.1471427144367518,-0.0004781475908236844,-0.01813065425147458,-0.988948973577241,-0.004389860201627016,-0.2910506129264832,-0.9566975831985474,0,0,0,-1,309140.3202222917,unknown,2,2015-05-14 21:33:13.146,null,0,0,0,0,null,0,0.2866364,99.75592,192.168.152.8,100.96.38.157,5,0
2015-05-14 21:33:20.460,125,1431628399.735022,59.93364945301327,30.35731146237405,21.26199,-1,-1,10,65,-9999,1431628400.45675,-9.545814514160156,-1.670730590820312,-44.09152221679688,50.29977416992188,39.90464782714844,20,309147.642610375,0.00732421875,-0.3101348876953125,-0.9745330810546875,309147.638355375,-0.0880638130300862,0.08657537229684091,0.5864784057800507,309147.618394375,0.04307045294642426,-0.008491349519517563,0.2976451741346972,-0.03866719081997871,-0.09199165552854538,0.3283454179763794,0.03642293810844421,-0.07657279074192047,-0.05187826231122017,XArbitraryZVertical,-0.148328534044753,0.001004923249816117,-0.02066597078963544,-0.9887216765949443,-0.008117885328829288,-0.2932697236537933,-0.9559952616691589,0,0,0,-1,309140.3202222917,unknown,2,2015-05-14 21:33:13.146,null,0,0,0,0,null,0,0.2866364,99.75592,192.168.152.8,100.96.38.157,5,0
2015-05-14 21:33:20.464,126,1431628399.735022,59.93364945301327,30.35731146237405,21.26199,-1,-1,10,65,-9999,1431628400.45675,-9.545814514160156,-1.670730590820312,-44.09152221679688,50.29977416992188,39.90464782714844,20,309147.652487375,0.0076751708984375,-0.2687835693359375,-1.008941650390625,309147.648359375,-0.1062755738284841,0.06736332819300929,0.6021761425094138,309147.638355375,0.05343575969671212,-0.01088848254087483,0.2975717061264958,-0.06006219983100891,0.07145415991544724,0.604362428188324,0.005298047792166471,-0.06216244027018547,0.02407932467758656,XArbitraryZVertical,-0.1483262407127137,0.00142208188527429,-0.02561241128631595,-0.9886057396086902,-0.01040974166244268,-0.2931995093822479,-0.9559946060180664,0,0,0,-1,309140.3202222917,unknown,2,2015-05-14 21:33:13.146,null,0,0,0,0,null,0,0.2866364,99.75592,192.168.152.8,100.96.38.157,5,0
2015-05-14 21:33:20.474,127,1431628399.735022,59.93364945301327,30.35731146237405,21.26199,-1,-1,10,65,-9999,1431628400.45675,-9.545814514160156,-1.670730590820312,-44.09152221679688,50.29977416992188,39.90464782714844,20,309147.662380375,-0.009521484375,-0.2391357421875,-1.020751953125,309147.648359375,-0.1062755738284841,0.06736332819300929,0.6021761425094138,309147.638355375,0.05343575969671212,-0.01088848254087483,0.2975717061264958,-0.06006219983100891,0.07145415991544724,0.604362428188324,0.005298047792166471,-0.06216244027018547,0.02407932467758656,XArbitraryZVertical,-0.1483262407127137,0.00142208188527429,-0.02561241128631595,-0.9886057396086902,-0.01040974166244268,-0.2931995093822479,-0.9559946060180664,0,0,0,-1,309140.3202222917,unknown,2,2015-05-14 21:33:13.146,null,0,0,0,0,null,0,0.2866364,99.75592,192.168.152.8,100.96.38.157,5,0
2015-05-14 21:33:20.484,128,1431628399.735022,59.93364945301327,30.35731146237405,21.26199,-1,-1,10,65,-9999,1431628400.476364,-9.443992614746094,-1.975624084472656,-44.1243896484375,50.17058944702148,39.77546310424805,20,309147.672265375,-0.0318603515625,-0.2307891845703125,-0.994720458984375,309147.658339375,-0.1420610020280968,0.03639316156036882,0.5631821378284736,309147.648359375,0.05993860142822855,-0.01220170533765785,0.2967921809520824,-0.07827401161193848,0.05224214494228363,0.6200600862503052,0.01899217069149017,-0.01768074370920658,-0.01832471787929535,XArbitraryZVertical,-0.1479636995386369,0.001600777745488743,-0.02873332175789248,-0.9885740120750728,-0.01166795194149017,-0.2924541532993317,-0.956208348274231,0,0,0,-1,309140.3202222917,unknown,2,2015-05-14 21:33:13.146,null,0,0,0,0,null,0,0.2866364,99.75592,192.168.152.8,100.96.38.157,5,0
2015-05-14 21:33:20.493,129,1431628399.735022,59.93364945301327,30.35731146237405,21.26199,-1,-1,10,65,-9999,1431628400.476364,-9.443992614746094,-1.975624084472656,-44.1243896484375,50.17058944702148,39.77546310424805,20,309147.682148375,-0.02685546875,-0.2417449951171875,-0.9592437744140625,309147.668327375,-0.1710218136182725,-0.01580745896627433,0.6009881063471295,309147.658339375,0.06609352205999899,-0.01371144218299859,0.2956607269226153,-0.1140594929456711,0.02127200923860073,0.5810660123825073,0.02079126052558422,0.02258840203285217,-0.05242173746228218,XArbitraryZVertical,-0.1474326738795957,0.001910650086250082,-0.03167036506753303,-0.9885630703528476,-0.01311608962714672,-0.2913719713687897,-0.9565199017524719,0,0,0,-1,309140.3202222917,unknown,2,2015-05-14 21:33:13.146,null,0,0,0,0,null,0,0.2866364,99.75592,192.168.152.8,100.96.38.157,5,0
2015-05-14 21:33:20.505,130,1431628399.735022,59.93364945301327,30.35731146237405,21.26199,-1,-1,10,65,-9999,1431628400.49652,-9.410049438476562,-1.806236267089844,-44.35433959960938,49.61392974853516,39.21880340576172,20,309147.692035375,-0.0059356689453125,-0.2619781494140625,-0.962677001953125,309147.678317375,-0.1359075020133597,-0.009291236411068446,0.7209491323853127,309147.658339375,0.06609352205999899,-0.01371144218299859,0.2956607269226153,-0.1140594929456711,0.02127200923860073,0.5810660123825073,0.02079126052558422,0.02258840203285217,-0.05242173746228218,XArbitraryZVertical,-0.1474326738795957,0.001910650086250082,-0.03167036506753303,-0.9885630703528476,-0.01311608962714672,-0.2913719713687897,-0.9565199017524719,0,0,0,-1,309140.3202222917,unknown,2,2015-05-14 21:33:13.146,null,0,0,0,0,null,0,0.2866364,99.75592,192.168.152.8,100.96.38.157,5,0
2015-05-14 21:33:20.513,131,1431628399.735022,59.93364945301327,30.35731146237405,21.26199,-1,-1,10,65,-9999,1431628400.49652,-9.410049438476562,-1.806236267089844,-44.35433959960938,49.61392974853516,39.21880340576172,20,309147.701920375,-0.047271728515625,-0.277099609375,-0.991729736328125,309147.698295375,0.1247754886568285,-0.06655053142831711,1.046926974029846,309147.678317375,0.07974582277413717,-0.01834581141296118,0.2920384018815658,-0.1079106479883194,-0.02441367320716381,0.7388336062431335,-0.01429230533540249,0.05711572989821434,-0.03722261264920235,XArbitraryZVertical,-0.1457408537230508,0.003268186671023708,-0.03810289145938323,-0.9885833764404464,-0.01756804622709751,-0.2879049181938171,-0.9574978351593018,0,0,0,-1,309140.3202222917,unknown,2,2015-05-14 21:33:13.146,null,0,0,0,0,null,0,0.2866364,99.75592,192.168.152.8,100.96.38.157,5,0
2015-05-14 21:33:20.523,132,1431628399.735022,59.93364945301327,30.35731146237405,21.26199,-1,-1,10,65,-9999,1431628400.516499,-9.002738952636719,-1.738479614257812,-44.15725708007812,48.22515869140625,37.83003234863281,20,309147.711812375,-0.0514678955078125,-0.300628662109375,-0.9968414306640625,309147.708293375,0.2683465030230002,-0.4090498255273746,1.239802687553308,309147.698295375,0.09931676810130155,-0.02453095827909106,0.2925263745185248,0.1527722179889679,-0.08167290687561035,1.06481146812439,0.01755081862211227,0.02639404311776161,-0.005446693394333124,XArbitraryZVertical,-0.1461539538455004,0.004885447162060309,-0.04731892858665584,-0.9881174389609588,-0.02348648756742477,-0.2883721888065338,-0.9572303295135498,0,0,0,-1,309140.3202222917,unknown,2,2015-05-14 21:33:13.146,null,0,0,0,0,null,0,0.2866364,99.75592,192.168.152.8,100.96.38.157,5,0
2015-05-14 21:33:20.539,133,1431628399.735022,59.93364945301327,30.35731146237405,21.26199,-1,-1,10,65,-9999,1431628400.536048,-9.206390380859375,-1.53521728515625,-44.09152221679688,47.66274642944336,37.26762008666992,20,309147.721691375,-0.050567626953125,-0.32489013671875,-0.9782257080078125,309147.708293375,0.2683465030230002,-0.4090498255273746,1.239802687553308,309147.698295375,0.09931676810130155,-0.02453095827909106,0.2925263745185248,0.1527722179889679,-0.08167290687561035,1.06481146812439,0.01755081862211227,0.02639404311776161,-0.005446693394333124,XArbitraryZVertical,-0.1461539538455004,0.004885447162060309,-0.04731892858665584,-0.9881174389609588,-0.02348648756742477,-0.2883721888065338,-0.9572303295135498,0,0,0,-1,309140.3202222917,unknown,2,2015-05-14 21:33:13.146,null,0,0,0,0,null,0,0.2866364,99.75592,192.168.152.8,100.96.38.157,5,0
2015-05-14 21:33:20.543,134,1431628399.735022,59.93364945301327,30.35731146237405,21.26199,-1,-1,10,65,-9999,1431628400.536048,-9.206390380859375,-1.53521728515625,-44.09152221679688,47.66274642944336,37.26762008666992,20,309147.731584375,-0.0951995849609375,-0.3010101318359375,-0.951080322265625,309147.728263375,0.3484650412569441,-0.8751048805040044,1.536937429327847,309147.708293375,0.1120071264972617,-0.0314179799781778,0.2948149465606079,0.2963431775569916,-0.4241721630096436,1.257687091827393,-0.01721419394016266,0.01346317585557699,-0.03534602001309395,XArbitraryZVertical,-0.147495584338198,0.007293463271711671,-0.0530568966086202,-0.9876116765796661,-0.03005753457546234,-0.290562778711319,-0.9563837051391602,0,0,0,-1,309140.3202222917,unknown,2,2015-05-14 21:33:13.146,null,0,0,0,0,null,0,0.2866364,99.75592,192.168.152.8,100.96.38.157,5,0
2015-05-14 21:33:20.552,135,1431628399.735022,59.93364945301327,30.35731146237405,21.26199,-1,-1,10,65,-9999,1431628400.536048,-9.206390380859375,-1.53521728515625,-44.09152221679688,47.66274642944336,37.26762008666992,20,309147.741463375,-0.113372802734375,-0.274566650390625,-0.92926025390625,309147.728263375,0.3484650412569441,-0.8751048805040044,1.536937429327847,309147.718275375,0.1265288020145121,-0.04264273432839774,0.2979988293091294,0.3858636915683746,-0.7732947468757629,1.414701223373413,-0.01071695145219564,-0.007020837161689997,-0.04178446531295776,XArbitraryZVertical,-0.1494510063849661,0.01165823117768006,-0.05934894401036789,-0.9869175169086736,-0.04075094312429428,-0.2936078310012817,-0.9550569653511047,0,0,0,-1,309140.3202222917,unknown,2,2015-05-14 21:33:13.146,null,0,0,0,0,null,0,0.2866364,99.75592,192.168.152.8,100.96.38.157,5,0
2015-05-14 21:33:20.563,136,1431628399.735022,59.93364945301327,30.35731146237405,21.26199,-1,-1,10,65,-9999,1431628400.556192,-9.613700866699219,-1.467460632324219,-44.09152221679688,48.45075988769531,38.05563354492188,20,309147.751350375,-0.1128082275390625,-0.2969207763671875,-0.9009246826171875,309147.738259375,0.2905849633895979,-0.8828453582123197,1.680323620314367,309147.718275375,0.1265288020145121,-0.04264273432839774,0.2979988293091294,0.3858636915683746,-0.7732947468757629,1.414701223373413,-0.01071695145219564,-0.007020837161689997,-0.04178446531295776,XArbitraryZVertical,-0.1494510063849661,0.01165823117768006,-0.05934894401036789,-0.9869175169086736,-0.04075094312429428,-0.2936078310012817,-0.9550569653511047,0,0,0,-1,309140.3202222917,unknown,2,2015-05-14 21:33:13.146,null,0,0,0,0,null,0,0.2866364,99.75592,192.168.152.8,100.96.38.157,5,0
2015-05-14 21:33:20.573,137,1431628399.735022,59.93364945301327,30.35731146237405,21.26199,-1,-1,10,65,-9999,1431628400.556192,-9.613700866699219,-1.467460632324219,-44.09152221679688,48.45075988769531,38.05563354492188,20,309147.761237375,-0.120697021484375,-0.313446044921875,-0.9065704345703125,309147.758230375,0.288573211502152,-0.9116304011705502,2.129450558138017,309147.738259375,0.1601697107256803,-0.07028522338039199,0.3033713944548019,0.3185814619064331,-0.8979676365852356,1.698207855224609,-0.02817916683852673,-0.00227079470641911,0.0008981816354207695,XArbitraryZVertical,-0.153305917479159,0.02253982520140376,-0.0737397754979295,-0.9851658223138261,-0.06702041625976562,-0.2987393438816071,-0.9519785046577454,0,0,0,-1,309140.3202222917,unknown,2,2015-05-14 21:33:13.146,null,0,0,0,0,null,0,0.2866364,99.75592,192.168.152.8,100.96.38.157,5,0
